time,seconds_elapsed,z,y,x
1781789731409251000,0.1272509765625,-0.03509235382080078,-0.0004141479730606079,-0.00014293193817138672
1781789731425262800,0.143262939453125,-0.03509235382080078,-0.002804175019264221,-0.009822282940149307
1781789731441265700,0.159265625,-0.025514602661132812,0.0019777193665504456,-0.0003284551203250885
1781789731457266400,0.175266357421875,-0.01593780517578125,0.004368580877780914,-0.005235031247138977
1781789731473271000,0.19127099609375,-0.0279083251953125,-0.005206629633903503,-0.005334429442882538
1781789731489278000,0.20727783203125,-0.025513648986816406,0.004376523196697235,0.0065410807728767395
1781789731505281300,0.22328125,-0.02072429656982422,0.0067668333649635315,-0.005527570843696594
1781789731521283300,0.239283447265625,-0.011147499084472656,0.01399647444486618,0.001512814313173294
1781789731537285600,0.25528564453125,-0.027906417846679688,-0.0028145387768745422,0.0039108917117118835
1781789731553281500,0.271281494140625,-0.025511741638183594,0.0019242465496063232,0.0015162043273448944
1781789731569280500,0.287280517578125,-0.02550983428955078,0.011362195014953613,-0.008063104003667831
1781789731585280500,0.303280517578125,-0.03029918670654297,0.006626449525356293,-0.008148949593305588
1781789731601277400,0.31927734375,-0.023113250732421875,0.001684032380580902,0.0037126466631889343
1781789731617278000,0.33527783203125,-0.018327713012695312,0.016202881932258606,-0.00581074133515358
1781789731633281300,0.35128125,-0.013536453247070312,-0.0007402598857879639,-0.003323230892419815
1781789731649283300,0.367283447265625,-0.02790355682373047,0.006525062024593353,-0.01300748623907566
1781789731665283600,0.38328369140625,-0.008747100830078125,0.015949122607707977,-0.0034689195454120636
1781789731681284400,0.399284423828125,-0.025506973266601562,0.006388165056705475,-0.003519706428050995
1781789731697286400,0.415286376953125,-0.02071666717529297,0.0014987215399742126,-0.00357867032289505
1781789731713289200,0.431289306640625,-0.025501251220703125,0.005954444408416748,0.001259930431842804
1781789731729297000,0.447296875,-0.027894020080566406,-0.0012764260172843933,0.001070655882358551
1781789731745299500,0.463299560546875,-0.0254974365234375,0.0033152326941490173,0.0009729191660881042
1781789731761305600,0.4793056640625,-0.0207061767578125,0.0055673569440841675,-0.006343118846416473
1781789731777308000,0.495307861328125,-0.030282974243164062,0.005469277501106262,-0.003863133490085602
1781789731793309000,0.511308837890625,-0.018311500549316406,-0.006399311125278473,-0.011177461594343185
1781789731809307100,0.52730712890625,-0.015918731689453125,0.003224708139896393,-0.0016138441860675812
1781789731825306600,0.543306640625,-0.0159149169921875,0.007767446339130402,-0.004106048494577408
1781789731841309400,0.559309326171875,-0.030279159545898438,-0.0019062161445617676,0.0006894618272781372
1781789731857308200,0.57530810546875,-0.011124610900878906,0.010017767548561096,-0.004246249794960022
1781789731873310500,0.591310546875,-0.023095130920410156,0.0004086345434188843,0.007823921740055084
1781789731889308000,0.607307861328125,-0.03027820587158203,0.007688015699386597,-0.011534452438354492
1781789731905299000,0.623298828125,-0.01830577850341797,0.002843603491783142,0.009981628507375717
1781789731921290200,0.639290283203125,-0.018303871154785156,-0.006789371371269226,0.004995275288820267
1781789731937282000,0.655281982421875,-0.0326690673828125,0.01947055757045746,0.002641979604959488
1781789731953277700,0.671277587890625,-0.02788066864013672,-0.0020831450819969177,-0.014075012877583504
1781789731969270800,0.687270751953125,-0.02788257598876953,-0.0066880881786346436,-0.009273886680603027
1781789731985262000,0.703261962890625,-0.035065650939941406,0.005139179527759552,-0.013923192396759987
1781789732001251300,0.719251220703125,-0.03745746612548828,0.002647116780281067,-0.006737317889928818
1781789732017239600,0.735239501953125,-0.02788066864013672,0.005104571580886841,0.0002498626708984375
1781789732033227500,0.7512275390625,-0.01830005645751953,0.009643793106079102,-0.00219770148396492
1781789732049220000,0.76722021484375,-0.0230865478515625,-0.0024205222725868225,-0.007265370339155197
1781789732065206500,0.78320654296875,-0.01590251922607422,-0.01208796352148056,-0.002587549388408661
1781789732081198000,0.799197998046875,-0.027869224548339844,-0.002745486795902252,-0.0004755780100822449
1781789732097187600,0.8151875,-0.030261993408203125,0.004339173436164856,-0.0076546259224414825
1781789732113173000,0.831173095703125,-0.02547168731689453,0.0017935782670974731,0.001865297555923462
1781789732129166000,0.847166015625,-0.02307605743408203,-0.005446881055831909,-0.0030126161873340607
1781789732145159700,0.86315966796875,-0.013500213623046875,0.00173930823802948,-0.00530821830034256
1781789732161156000,0.879156005859375,-0.020682334899902344,0.008835330605506897,-0.012503731995821
1781789732177148400,0.8951484375,-0.023073196411132812,-0.0009806454181671143,-0.017291225492954254
1781789732193145300,0.911145263671875,-0.013495445251464844,0.0013628751039505005,0.0067584700882434845
1781789732209141800,0.927141845703125,-0.02546405792236328,0.0010717585682868958,-0.0050326623022556305
1781789732225134600,0.943134521484375,-0.020674705505371094,0.005759909749031067,0.0046890974044799805
1781789732241128000,0.9591279296875,-0.015885353088378906,0.005628667771816254,-0.009624183177947998
1781789732257115600,0.97511572265625,-0.02306652069091797,-0.006352037191390991,-0.009679652750492096
1781789732273104600,0.991104736328125,-0.03024578094482422,0.007732704281806946,-0.0026430971920490265
1781789732289094100,1.00709423828125,-0.015880584716796875,-0.001898638904094696,0.006943400949239731
1781789732305078300,1.023078369140625,-0.02066802978515625,0.005240544676780701,0.004543043673038483
1781789732321062400,1.0390625,-0.030243873596191406,0.0027486011385917664,-0.00024214014410972595
1781789732337050000,1.055050048828125,-0.025455474853515625,-0.0020853057503700256,-0.007290098816156387
1781789732353035500,1.071035400390625,-0.030241012573242188,0.004958435893058777,-0.009828642010688782
1781789732369024800,1.087024658203125,-0.01826763153076172,0.004813253879547119,-0.01232345774769783
1781789732385013800,1.103013671875,-0.030239105224609375,-0.004724249243736267,-0.019596993923187256
1781789732409001200,1.127001220703125,-0.0230560302734375,-0.009449295699596405,0.008937716484069824
1781789732424992000,1.142991943359375,-0.025447845458984375,-0.009694859385490417,0.004194233566522598
1781789732440983000,1.158983154296875,-0.020656585693359375,0.004517972469329834,-0.012551695108413696
1781789732456969200,1.17496923828125,-0.018260955810546875,0.011513486504554749,-0.0028422437608242035
1781789732472954600,1.19095458984375,-0.0086822509765625,-0.0029931366443634033,-0.007632981985807419
1781789732488940800,1.20694091796875,-0.020651817321777344,-0.005482807755470276,-0.0077708810567855835
1781789732504923100,1.222923095703125,-0.02543926239013672,-0.0032263845205307007,-0.0004922971129417419
1781789732520906500,1.238906494140625,-0.011073112487792969,-0.0008865594863891602,-0.00048263370990753174
1781789732536892700,1.254892578125,-0.025435447692871094,-0.008310891687870026,-0.012310732156038284
1781789732552876300,1.270876220703125,-0.030220985412597656,-0.00855640321969986,-0.007477696985006332
1781789732568864500,1.286864501953125,-0.032614707946777344,-0.0037545114755630493,-0.007635246962308884
1781789732584860000,1.30285986328125,-0.037400245666503906,-0.01592126488685608,-0.0004456043243408203
1781789732600852200,1.318852294921875,-0.015852928161621094,0.005587264895439148,-0.01232568547129631
1781789732616844300,1.33484423828125,-0.027823448181152344,-0.006393492221832275,0.0019843243062496185
1781789732632829700,1.35082958984375,-0.020638465881347656,-0.008973516523838043,0.0020462237298488617
1781789732648820000,1.366820068359375,-0.018243789672851562,0.0029541850090026855,-0.005143120884895325
1781789732664808000,1.382807861328125,-0.015850067138671875,0.00294475257396698,-0.017170239239931107
1781789732680793600,1.398793701171875,-0.02303028106689453,-0.00671742856502533,-0.005283169448375702
1781789732696781000,1.414781005859375,-0.011057853698730469,-0.002076655626296997,0.0019408129155635834
1781789732712773400,1.4307734375,-0.01823902130126953,0.0026175230741500854,-0.005139682441949844
1781789732728765400,1.446765380859375,-0.027815818786621094,-0.006971478462219238,-0.017024431377649307
1781789732744763400,1.462763427734375,-0.023029327392578125,-0.011697240173816681,0.004708427935838699
1781789732760762600,1.4787626953125,-0.018242835998535156,-0.004373267292976379,0.007104836404323578
1781789732776758500,1.494758544921875,-0.02542400360107422,-0.002120405435562134,-0.002474602311849594
1781789732792751600,1.510751708984375,-0.03260326385498047,-0.011993326246738434,0.00007214769721031189
1781789732808741600,1.52674169921875,-0.020630836486816406,-0.009685762226581573,-0.004821576178073883
1781789732824733000,1.54273291015625,-0.027810096740722656,-0.009828649461269379,-0.00027517229318618774
1781789732840729900,1.558729736328125,-0.011048316955566406,0.0019527822732925415,-0.009888354688882828
1781789732856726300,1.574726318359375,-0.025414466857910156,-0.007535785436630249,0.0020236261188983917
1781789732872716500,1.590716552734375,-0.023016929626464844,0.004245474934577942,-0.012377634644508362
1781789732888702700,1.60670263671875,-0.02062225341796875,-0.005568936467170715,-0.0025608353316783905
1781789732904690700,1.622690673828125,-0.018225669860839844,-0.0008340030908584595,-0.009803857654333115
1781789732920681000,1.638680908203125,-0.023015975952148438,-0.005614727735519409,-0.0024252720177173615
1781789732936676900,1.6546767578125,-0.013436317443847656,-0.003371626138687134,-0.0048772841691970825
1781789732952670200,1.670670166015625,-0.023009300231933594,-0.003654271364212036,0.002300359308719635
1781789732968668000,1.68666796875,-0.018220901489257812,-0.00370238721370697,-0.0073108188807964325
1781789732984662000,1.702662109375,-0.025402069091796875,-0.001412317156791687,-0.009657762944698334
1781789733000650800,1.718650634765625,-0.02540302276611328,-0.0013141036033630371,0.0023087896406650543
1781789733016640800,1.734640869140625,-0.023008346557617188,-0.010891087353229523,-0.0024792850017547607
1781789733032632300,1.75063232421875,-0.011035919189453125,0.003299534320831299,-0.01679903268814087
1781789733048618000,1.766617919921875,-0.020610809326171875,0.003148198127746582,-0.0048852041363716125
1781789733064611800,1.78261181640625,-0.0038480758666992188,0.0005584210157394409,-0.0048785097897052765
1781789733080605700,1.798605712890625,-0.023000717163085938,-0.009065330028533936,-0.000195186585187912
1781789733096602000,1.81460205078125,-0.032578468322753906,0.0006948411464691162,-0.010003205388784409
1781789733112601300,1.830601318359375,-0.01581859588623047,-0.006671085953712463,-0.007378082722425461
1781789733128601900,1.846601806640625,-0.025396347045898438,-0.013843707740306854,-0.0049293152987957
1781789733144596500,1.862596435546875,-0.022998809814453125,-0.016433633863925934,-0.0025280825793743134
1781789733160589300,1.87858935546875,-0.018209457397460938,-0.011702470481395721,-0.0074751973152160645
1781789733176580900,1.894580810546875,-0.013419151306152344,0.0026084184646606445,-0.002677440643310547
1781789733192574700,1.91057470703125,-0.025388717651367188,0.012012630701065063,-0.002772469073534012
1781789733208566800,1.92656689453125,-0.027780532836914062,-0.007288724184036255,0.004451580345630646
1781789733224562000,1.94256201171875,-0.03017425537109375,-0.004942759871482849,0.006812002509832382
1781789733240557800,1.958557861328125,-0.01580810546875,-0.005083873867988586,-0.009950663894414902
1781789733256554000,1.974553955078125,-0.025383949279785156,-0.005129620432853699,0.002155601978302002
1781789733272548400,1.99054833984375,-0.01820087432861328,-0.00035347044467926025,-0.014517268165946007
1781789733288544000,2.0065439453125,-0.02538299560546875,-0.0027958303689956665,-0.009762942790985107
1781789733304543000,2.02254296875,-0.027776718139648438,-0.007620975375175476,0.006945312023162842
1781789733328536800,2.046536865234375,-0.022985458374023438,-0.01019980013370514,-0.0026407390832901
1781789733344535300,2.062535400390625,-0.018195152282714844,-0.007910951972007751,-0.0052276067435741425
1781789733360526000,2.078526123046875,-0.02058696746826172,-0.0009178817272186279,-0.00047592073678970337
1781789733376518400,2.094518310546875,-0.022978782653808594,-0.01059509813785553,-0.01021822914481163
1781789733392511700,2.11051171875,-0.020583152770996094,-0.008296564221382141,0.0016151927411556244
1781789733408501200,2.126501220703125,-0.027762413024902344,-0.010879114270210266,-0.008069034665822983
1781789733424497400,2.142497314453125,-0.020689964294433594,-0.005852319300174713,-0.00240880623459816
1781789733440489700,2.15848974609375,-0.025476455688476562,0.0011308938264846802,0.0022883303463459015
1781789733456478000,2.17447802734375,-0.02068328857421875,0.0032843127846717834,0.009232457727193832
1781789733472468200,2.19046826171875,-0.025468826293945312,0.005496181547641754,-0.0004945769906044006
1781789733488455000,2.206454833984375,-0.037436485290527344,0.005351230502128601,0.004192613065242767
1781789733504444200,2.222444091796875,-0.02306842803955078,-0.004471130669116974,0.006631724536418915
1781789733520432000,2.23843212890625,-0.02306842803955078,0.0002297237515449524,-0.005282118916511536
1781789733536423400,2.25442333984375,-0.02785491943359375,-0.0022724568843841553,-0.0005444623529911041
1781789733552413000,2.270412841796875,-0.02306079864501953,-0.005051232874393463,-0.012614598497748375
1781789733568407300,2.2864072265625,-0.027848243713378906,-0.00988072156906128,0.003997243940830231
1781789733584404200,2.302404296875,-0.023057937622070312,0.00434538722038269,0.0038539133965969086
1781789733600397000,2.31839697265625,-0.023055076599121094,-0.002976059913635254,-0.0010788440704345703
1781789733616384800,2.334384765625,-0.037418365478515625,0.004004523158073425,-0.003422565758228302
1781789733632378400,2.35037841796875,-0.03741455078125,-0.010552756488323212,-0.0036279819905757904
1781789733648368600,2.36636865234375,-0.018258094787597656,0.0011889636516571045,-0.006058868020772934
1781789733664362000,2.382362060546875,-0.03980445861816406,-0.010883621871471405,-0.008547838777303696
1781789733680354800,2.398354736328125,-0.025437355041503906,-0.008595071732997894,0.010413631796836853
1781789733696352300,2.414352294921875,-0.039801597595214844,0.0009865909814834595,0.0005533844232559204
1781789733712345300,2.430345458984375,-0.020647048950195312,-0.0014570653438568115,0.0053784772753715515
1781789733728332500,2.44633251953125,-0.01585865020751953,-0.008586682379245758,-0.0020532235503196716
1781789733744324400,2.462324462890625,-0.02303791046142578,-0.006385922431945801,0.004995010793209076
1781789733760313600,2.478313720703125,-0.03261375427246094,-0.008868120610713959,-0.006917588412761688
1781789733776306400,2.494306396484375,-0.025427818298339844,0.0028596967458724976,-0.01180274784564972
1781789733792299000,2.510299072265625,-0.01824188232421875,-0.0020737051963806152,-0.004721067845821381
1781789733808286200,2.5262861328125,-0.018240928649902344,-0.009397424757480621,-0.002330102026462555
1781789733824273400,2.5422734375,-0.032604217529296875,-0.0022163838148117065,-0.004963412880897522
1781789733840265000,2.558264892578125,-0.023026466369628906,-0.004706203937530518,-0.00270707905292511
1781789733856257500,2.574257568359375,-0.020630836486816406,-0.000004693865776062012,-0.01229589432477951
1781789733872250600,2.590250732421875,-0.008656501770019531,-0.012224860489368439,-0.0003785640001296997
1781789733888247800,2.606247802734375,-0.018232345581054688,-0.012325160205364227,-0.005021724849939346
1781789733904245200,2.622245361328125,-0.008653640747070312,0.001998886466026306,-0.00038059428334236145
1781789733920244700,2.63824462890625,-0.04456520080566406,-0.010061584413051605,-0.0029560811817646027
1781789733936241000,2.654240966796875,-0.0301971435546875,-0.003122463822364807,-0.007840339094400406
1781789733952234200,2.670234130859375,-0.027802467346191406,-0.0054709166288375854,-0.0031871870160102844
1781789733968229000,2.68622900390625,-0.025406837463378906,-0.005561411380767822,-0.0032978132367134094
1781789733984217000,2.702217041015625,-0.032586097717285156,0.0014252662658691406,-0.010473042726516724
1781789734000210200,2.718210205078125,-0.013430595397949219,-0.0011634528636932373,-0.0009602122008800507
1781789734016201200,2.734201171875,-0.013430595397949219,-0.0035014301538467407,0.006140444427728653
1781789734032192300,2.750192138671875,-0.03258037567138672,-0.0013169646263122559,0.001206856220960617
1781789734048184000,2.76618408203125,-0.04454994201660156,-0.0038400888442993164,-0.001276843249797821
1781789734064176600,2.7821767578125,-0.015817642211914062,-0.004024624824523926,-0.0036804527044296265
1781789734080174800,2.7981748046875,-0.030179977416992188,-0.008970364928245544,-0.0036942586302757263
1781789734096169200,2.814169189453125,-0.022993087768554688,-0.006810873746871948,-0.018341083079576492
1781789734112168200,2.830168212890625,-0.02059459686279297,-0.002365708351135254,0.0008603520691394806
1781789734128158200,2.846158203125,-0.025381088256835938,0.0022482872009277344,0.0009054690599441528
1781789734144145400,2.8621455078125,-0.027771949768066406,0.004493728280067444,0.0031004250049591064
1781789734160135400,2.878135498046875,-0.018192291259765625,-0.007679358124732971,-0.008819807320833206
1781789734176120300,2.894120361328125,-0.027769088745117188,-0.0076338499784469604,-0.011348620057106018
1781789734192107300,2.910107177734375,-0.022975921630859375,-0.012745924293994904,-0.009107276797294617
1781789734208094500,2.926094482421875,-0.02776336669921875,-0.0032707154750823975,-0.009201645851135254
1781789734224082700,2.942082763671875,-0.030272483825683594,0.0010513141751289368,0.0047181136906147
1781789734240072400,2.958072509765625,-0.027875900268554688,-0.0039330050349235535,0.011908099055290222
1781789734256061700,2.974061767578125,-0.02069091796875,0.0006705000996589661,0.00471729040145874
1781789734272049700,2.990049560546875,-0.020689964294433594,-0.011404439806938171,0.01194654032588005
1781789734288036000,3.0060361328125,-0.03265666961669922,0.01226113736629486,0.014292053878307343
1781789734304027600,3.022027587890625,-0.032652854919433594,0.004774786531925201,0.0022773481905460358
1781789734320013800,3.038013916015625,-0.0302581787109375,0.002294003963470459,0.00226413831114769
1781789734335988700,3.05398876953125,-0.027862548828125,-0.00493679940700531,0.011806890368461609
1781789734351969000,3.069968994140625,-0.03264808654785156,0.0019545480608940125,0.00959257036447525
1781789734367947300,3.085947265625,-0.032645225524902344,0.001761123538017273,0.0070639848709106445
1781789734383924000,3.101924072265625,-0.032645225524902344,0.006506115198135376,0.0022694244980812073
1781789734399907800,3.117907958984375,-0.030251502990722656,-0.02217096835374832,0.011907249689102173
1781789734415886600,3.133886474609375,-0.020676612854003906,-0.002864927053451538,0.00471087172627449
1781789734431867600,3.14986767578125,-0.037436485290527344,-0.00521569699048996,0.0071112290024757385
1781789734447856600,3.165856689453125,-0.04222393035888672,-0.0004309043288230896,-0.00016997754573822021
1781789734463843000,3.181843017578125,-0.042224884033203125,-0.00033674389123916626,0.006910812109708786
1781789734479828500,3.197828369140625,-0.025465011596679688,-0.00038901716470718384,0.009173870086669922
1781789734495816000,3.21381591796875,-0.0254669189453125,0.011730939149856567,0.009061455726623535
1781789734511805200,3.22980517578125,-0.015891075134277344,-0.002580784261226654,-0.002849400043487549
1781789734527790800,3.245790771484375,-0.013494491577148438,-0.007416442036628723,0.009017463773488998
1781789734543780600,3.261780517578125,-0.027858734130859375,-0.005080662667751312,-0.0006470605731010437
1781789734559765000,3.277764892578125,-0.01828289031982422,-0.00019804388284683228,0.0016450360417366028
1781789734575754000,3.29375390625,-0.025463104248046875,-0.002734944224357605,-0.0033857151865959167
1781789734591744300,3.309744140625,-0.013490676879882812,-0.010009154677391052,0.006150878965854645
1781789734607737600,3.325737548828125,-0.044612884521484375,-0.005466356873512268,-0.005774930119514465
1781789734623729000,3.34172900390625,-0.020669937133789062,-0.022219501435756683,0.0013636760413646698
1781789734639722200,3.35772216796875,-0.027849197387695312,0.001540452241897583,-0.0011816732585430145
1781789734655711200,3.373711181640625,-0.03503227233886719,0.008758783340454102,0.005811408162117004
1781789734671703000,3.389703125,-0.04460906982421875,-0.005651593208312988,-0.0013290196657180786
1781789734687688000,3.40568798828125,-0.030242919921875,0.0014901161193847656,0.00331120565533638
1781789734703676000,3.421676025390625,-0.015877723693847656,-0.005655437707901001,0.005755595862865448
1781789734719658200,3.437658203125,-0.020664215087890625,-0.010628677904605865,0.0009587258100509644
1781789734735642000,3.45364208984375,-0.025452613830566406,-0.003406211733818054,0.0008659809827804565
1781789734751628300,3.469628173828125,-0.03502655029296875,-0.005994081497192383,-0.0016615316271781921
1781789734767617000,3.485616943359375,-0.03024005889892578,-0.010534174740314484,0.005333472043275833
1781789734783603000,3.50160302734375,-0.02066326141357422,-0.0009104162454605103,0.007521416991949081
1781789734799591400,3.51759130859375,-0.030241966247558594,-0.007984869182109833,0.007571402937173843
1781789734815578600,3.53357861328125,-0.027846336364746094,-0.012831680476665497,0.00987759605050087
1781789734831565000,3.54956494140625,-0.027846336364746094,0.0015783309936523438,-0.00215858593583107
1781789734847555000,3.56555517578125,-0.03502941131591797,-0.0007600933313369751,-0.007027551531791687
1781789734863546400,3.58154638671875,-0.023057937622070312,-0.007992275059223175,0.004980310797691345
1781789734879533300,3.597533203125,-0.027846336364746094,0.004024520516395569,0.004845175892114639
1781789734895520300,3.613520263671875,-0.03981590270996094,0.0016290545463562012,-0.004971936345100403
1781789734911509500,3.629509521484375,-0.032634735107421875,0.0041174739599227905,-0.00028564780950546265
1781789734927496700,3.64549658203125,-0.015875816345214844,0.0018174201250076294,0.004400931298732758
1781789734943485000,3.66148486328125,-0.03981971740722656,-0.005260840058326721,-0.007617667317390442
1781789734959472000,3.67747216796875,-0.020666122436523438,-0.007611334323883057,0.00914657860994339
1781789734975464000,3.6934638671875,-0.03263568878173828,-0.002914726734161377,0.004318714141845703
1781789734991454700,3.709454833984375,-0.01826953887939453,-0.014878153800964355,0.008992083370685577
1781789735007443500,3.725443359375,-0.03023815155029297,-0.015077725052833557,0.0017185397446155548
1781789735023436000,3.74143603515625,-0.03502464294433594,0.0015366673469543457,-0.0007765889167785645
1781789735039425500,3.757425537109375,-0.027840614318847656,-0.0032950937747955322,0.004005368798971176
1781789735055423500,3.773423583984375,-0.027840614318847656,0.001495853066444397,-0.000925060361623764
1781789735071418600,3.789418701171875,-0.039811134338378906,-0.0008502304553985596,-0.0012020207941532135
1781789735087412200,3.805412109375,-0.030233383178710938,-0.003291681408882141,-0.008488766849040985
1781789735103408000,3.821408203125,-0.025443077087402344,-0.005787461996078491,-0.0014009438455104828
1781789735119401500,3.8374013671875,-0.023047447204589844,-0.01062311977148056,0.005677513778209686
1781789735135391500,3.8533916015625,-0.03741264343261719,0.001348063349723816,-0.0015054158866405487
1781789735151382800,3.8693828125,-0.023047447204589844,0.006136715412139893,0.008070766925811768
1781789735167375400,3.885375244140625,-0.027833938598632812,0.0012923330068588257,-0.011312838643789291
1781789735183367700,3.90136767578125,-0.02543926239013672,-0.013157151639461517,0.010080639272928238
1781789735199356400,3.9173564453125,-0.03501605987548828,-0.0011484026908874512,0.0029463693499565125
1781789735215345700,3.933345703125,-0.023044586181640625,0.001252010464668274,0.0005084499716758728
1781789735231335200,3.949335205078125,-0.03980541229248047,-0.0034929215908050537,0.010091133415699005
1781789735247325000,3.965324951171875,-0.0302276611328125,-0.0034790337085723877,-0.0068267881870269775
1781789735263308800,3.981308837890625,-0.02543926239013672,-0.0010885447263717651,0.005045652389526367
1781789735279300000,3.997300048828125,-0.027833938598632812,0.006231948733329773,0.004949081689119339
1781789735295291100,4.013291015625,-0.03740978240966797,-0.008231081068515778,-0.007018428295850754
1781789735311282200,4.0292822265625,-0.013468742370605469,-0.003375723958015442,-0.004721343517303467
1781789735327270100,4.045270263671875,-0.02543926239013672,0.0013483017683029175,0.004810549318790436
1781789735343254000,4.06125390625,-0.018256187438964844,0.001348063349723816,-0.00955403596162796
1781789735359237400,4.0772373046875,-0.015862464904785156,-0.008128412067890167,-0.004910871386528015
1781789735375222800,4.093222900390625,-0.02064990997314453,0.006189554929733276,0.004561789333820343
1781789735391205600,4.10920556640625,-0.03501415252685547,-0.0033787786960601807,-0.00759405642747879
1781789735407189500,4.125189453125,-0.0302276611328125,0.003935009241104126,-0.002857264131307602
1781789735423173000,4.141173095703125,-0.04459190368652344,-0.01047835499048233,-0.007679726928472519
1781789735439157500,4.157157470703125,-0.03262138366699219,-0.01038409024477005,-0.0005995258688926697
1781789735455153700,4.173153564453125,-0.042197227478027344,0.0015830844640731812,-0.0006975084543228149
1781789735471147300,4.189147216796875,-0.027831077575683594,0.006334677338600159,0.0016461685299873352
1781789735487142000,4.205141845703125,-0.0302276611328125,-0.0032007545232772827,-0.0029955804347991943
1781789735503136300,4.22113623046875,-0.011072158813476562,-0.012870736420154572,0.0018242597579956055
1781789735519127800,4.2371279296875,-0.018255233764648438,-0.0008438080549240112,-0.012621961534023285
1781789735535116500,4.253116455078125,-0.03501415252685547,0.01107199490070343,0.004216611385345459
1781789735551101400,4.269101318359375,-0.013467788696289062,-0.005675643682479858,0.004509665071964264
1781789735567087600,4.285087646484375,-0.030225753784179688,-0.008177585899829865,-0.0027243010699748993
1781789735583074600,4.301074462890625,-0.027830123901367188,-0.008214972913265228,0.0019217655062675476
1781789735599056400,4.317056396484375,-0.0302276611328125,-0.008026055991649628,-0.00515500083565712
1781789735615038000,4.333037841796875,-0.008680343627929688,-0.005533739924430847,-0.00037102773785591125
1781789735631017200,4.349017333984375,-0.02783489227294922,-0.005585700273513794,0.002202153205871582
1781789735647001900,4.365001953125,-0.0350189208984375,-0.0030454546213150024,-0.01004936546087265
1781789735662989000,4.380989013671875,-0.04698753356933594,0.0017391741275787354,-0.010147646069526672
1781789735678979000,4.39697900390625,-0.04698753356933594,0.006534159183502197,-0.010192006826400757
1781789735694965500,4.412965576171875,-0.01825714111328125,0.0016888678073883057,0.0019304007291793823
1781789735710950100,4.4289501953125,-0.020651817321777344,-0.000748753547668457,-0.0052583590149879456
1781789735726942700,4.444942626953125,-0.027833938598632812,-0.008027829229831696,-0.007409319281578064
1781789735742931500,4.460931396484375,-0.030229568481445312,0.0040350258350372314,-0.0001871362328529358
1781789735758920200,4.476920166015625,-0.015865325927734375,-0.010276682674884796,-0.002521190792322159
1781789735774905900,4.49290576171875,-0.027837753295898438,-0.010123886168003082,0.007041178643703461
1781789735790892500,4.508892578125,-0.030233383178710938,-0.007741682231426239,0.004732903093099594
1781789735806884600,4.524884521484375,-0.03741264343261719,0.006494373083114624,0.007038231939077377
1781789735822874400,4.540874267578125,-0.05656719207763672,-0.012521617114543915,-0.00024032965302467346
1781789735838859800,4.55685986328125,-0.027838706970214844,0.0019342675805091858,-0.0025242380797863007
1781789735854848000,4.572847900390625,-0.025444984436035156,0.008976995944976807,0.00010704994201660156
1781789735870843600,4.58884375,-0.0398101806640625,0.004136860370635986,0.002679601311683655
1781789735886836200,4.604836181640625,-0.01826000213623047,-0.0031000077724456787,-0.009282320737838745
1781789735902828300,4.620828369140625,-0.025442123413085938,0.0016378015279769897,0.012061703950166702
1781789735918824000,4.636823974609375,-0.039811134338378906,-0.007728911936283112,0.0026288777589797974
1781789735934817000,4.652817138671875,-0.027840614318847656,-0.010028712451457977,-0.007050357758998871
1781789735950808600,4.66880859375,-0.015868186950683594,0.001793786883354187,0.005031835287809372
1781789735966796800,4.684796875,-0.020656585693359375,-0.0006522387266159058,-0.004366576671600342
1781789735982781400,4.700781494140625,-0.03502368927001953,-0.005399301648139954,0.002962972968816757
1781789735998769200,4.71676904296875,-0.0398101806640625,-0.003046378493309021,-0.0091552734375
1781789736014765300,4.732765380859375,-0.037415504455566406,-0.010319136083126068,0.005409419536590576
1781789736030758000,4.7487578125,-0.027835845947265625,-0.005681827664375305,0.007745817303657532
1781789736046754600,4.764754638671875,-0.020651817321777344,0.0012629181146621704,-0.006378784775733948
1781789736062749000,4.7807490234375,-0.030231475830078125,-0.000979691743850708,0.0008603930473327637
1781789736078744000,4.796744140625,-0.032622337341308594,0.0012630969285964966,-0.006379108875989914
1781789736094741500,4.812741455078125,-0.020650863647460938,-0.005960777401924133,0.003050457686185837
1781789736110737700,4.828737548828125,-0.023042678833007812,0.0034140795469284058,0.0007070153951644897
1781789736126739000,4.844739013671875,-0.02064990997314453,-0.0038127154111862183,-0.008495431393384933
1781789736142742300,4.8607421875,-0.03980255126953125,-0.0014666914939880371,-0.0037410855293273926
1781789736158739700,4.87673974609375,-0.039801597595214844,-0.011039815843105316,0.0008348748087882996
1781789736174732500,4.892732666015625,-0.037407875061035156,-0.00615808367729187,0.005590949207544327
1781789736190724400,4.908724365234375,-0.023042678833007812,-0.0038528144359588623,0.012902036309242249
1781789736206716200,4.924716064453125,-0.0469818115234375,-0.004048734903335571,-0.0086384117603302
1781789736222714400,4.94071435546875,-0.0206451416015625,0.0006988048553466797,0.0031844116747379303
1781789736238702800,4.956702880859375,-0.03500843048095703,0.000597044825553894,-0.004092659801244736
1781789736254687700,4.972687744140625,-0.032614707946777344,-0.004138007760047913,0.005545176565647125
1781789736270678300,4.98867822265625,-0.020643234252929688,-0.006624728441238403,0.0031808316707611084
1781789736286672600,5.004672607421875,-0.02064228057861328,0.002887621521949768,0.0031356588006019592
1781789736302672600,5.020672607421875,-0.032611846923828125,-0.006769612431526184,0.003079298883676529
1781789736318664700,5.036664794921875,-0.020641326904296875,-0.01161462813615799,-0.008741233497858047
1781789736334654700,5.05265478515625,-0.023036956787109375,-0.009118624031543732,-0.0038586556911468506
1781789736350647300,5.068647216796875,-0.030219078063964844,-0.011606819927692413,0.0082138292491436
1781789736366643500,5.0846435546875,-0.03500843048095703,-0.011615075170993805,-0.0011787675321102142
1781789736382631200,5.100631103515625,-0.03500843048095703,0.000360146164894104,-0.0011739879846572876
1781789736398619600,5.11661962890625,-0.025429725646972656,0.00505538284778595,0.0036458633840084076
1781789736414605800,5.132605712890625,-0.02543163299560547,-0.004426673054695129,0.00864192470908165
1781789736430598400,5.148598388671875,-0.01824951171875,0.0004203617572784424,0.003940891474485397
1781789736446589000,5.1645888671875,-0.037403106689453125,-0.004424691200256348,0.0016974695026874542
1781789736462578000,5.180577880859375,-0.03500938415527344,-0.006868645548820496,-0.0030533336102962494
1781789736478570500,5.196570556640625,-0.037403106689453125,-0.004464447498321533,0.00897224247455597
1781789736494555100,5.21255517578125,-0.02543163299560547,-0.00456632673740387,-0.003092624247074127
1781789736510540000,5.2285400390625,-0.035010337829589844,0.00036121904850006104,-0.007737599313259125
1781789736526525200,5.244525146484375,-0.025432586669921875,-0.009213276207447052,-0.0006964020431041718
1781789736542511000,5.260510986328125,-0.03979682922363281,-0.004511252045631409,0.0016842447221279144
1781789736558500900,5.2765009765625,-0.032614707946777344,0.0027109384536743164,0.00398661196231842
1781789736574488000,5.292488037109375,-0.030218124389648438,-0.002183064818382263,0.006188377737998962
1781789736590475300,5.308475341796875,-0.044582366943359375,-0.002257436513900757,0.0013004951179027557
1781789736606460000,5.3244599609375,-0.032611846923828125,0.009790435433387756,-0.0011359676718711853
1781789736622446600,5.340446533203125,-0.035003662109375,0.004857078194618225,0.0035512112081050873
1781789736638433000,5.35643310546875,-0.035002708435058594,-0.004666164517402649,-0.003882322460412979
1781789736654419700,5.372419677734375,-0.02063751220703125,0.004822641611099243,-0.001429721713066101
1781789736670408200,5.388408203125,-0.027815818786621094,-0.009743951261043549,0.005423456430435181
1781789736686397700,5.404397705078125,-0.023023605346679688,-0.0003950446844100952,0.00301341712474823
1781789736702388000,5.420387939453125,-0.025417327880859375,-0.0028870701789855957,-0.0041656941175460815
1781789736718380300,5.43638037109375,-0.025415420532226562,-0.005428716540336609,-0.004125170409679413
1781789736734367700,5.45236767578125,-0.03020191192626953,-0.000684097409248352,0.0051353685557842255
1781789736750355000,5.46835498046875,-0.03738212585449219,-0.0031726062297821045,0.00013834983110427856
1781789736766347500,5.484347412109375,-0.03738117218017578,-0.01274680346250534,-0.009580787271261215
1781789736782331400,5.500331298828125,-0.0349884033203125,-0.005566522479057312,0.009714223444461823
1781789736798322400,5.516322509765625,-0.02301502227783203,0.001468747854232788,0.002572096884250641
1781789736814317000,5.532317138671875,-0.02540874481201172,0.001420348882675171,0.0025386661291122437
1781789736830308900,5.548308837890625,-0.027803421020507812,0.0014746636152267456,-0.0046532973647117615
1781789736846300400,5.564300537109375,-0.03498554229736328,-0.012938909232616425,0.00010136514902114868
1781789736862291500,5.58029150390625,-0.023014068603515625,-0.005762502551078796,0.0025392919778823853
1781789736878280200,5.5962802734375,-0.03258991241455078,0.0037732720375061035,0.007179826498031616
1781789736894275600,5.612275634765625,-0.02540874481201172,-0.005755871534347534,-0.0022937916219234467
1781789736910269000,5.62826904296875,-0.04216957092285156,-0.015195034444332123,-0.014360768720507622
1781789736926261200,5.64426123046875,-0.025409698486328125,-0.012798450887203217,0.007045343518257141
1781789736942249200,5.660249267578125,-0.027802467346191406,-0.010407902300357819,0.00455281138420105
1781789736958236000,5.67623583984375,-0.042168617248535156,-0.005621820688247681,0.007088422775268555
1781789736974218800,5.69221875,-0.03498649597167969,-0.0032316893339157104,-0.0049799345433712006
1781789736990209000,5.708208984375,-0.0301971435546875,-0.010351009666919708,0.006795614957809448
1781789737006192000,5.724192138671875,-0.027802467346191406,0.0016100108623504639,0.009135257452726364
1781789737022182100,5.74018212890625,-0.02301311492919922,-0.01035221666097641,-0.0006273128092288971
1781789737038171000,5.7561708984375,-0.0301971435546875,-0.0031299740076065063,-0.0007194392383098602
1781789737054157300,5.7721572265625,-0.034981727600097656,-0.010461576282978058,0.0038703642785549164
1781789737070143200,5.788143310546875,-0.02301025390625,-0.010498665273189545,0.003820456564426422
1781789737086130400,5.80413037109375,-0.02779865264892578,-0.00806485116481781,-0.0010597854852676392
1781789737102118700,5.82011865234375,-0.039772987365722656,-0.015041448175907135,0.0013810284435749054
1781789737118108200,5.836108154296875,-0.027799606323242188,-0.012755028903484344,-0.0010642372071743011
1781789737134096100,5.85209619140625,-0.023009300231933594,-0.012846745550632477,-0.0058928318321704865
1781789737150082600,5.86808251953125,-0.049345970153808594,-0.01278967410326004,0.001138046383857727
1781789737166068200,5.884068115234375,-0.0206146240234375,-0.008142858743667603,-0.0036523453891277313
1781789737182059000,5.90005908203125,-0.039768218994140625,-0.008058667182922363,-0.006202932447195053
1781789737198047200,5.916047119140625,-0.020615577697753906,-0.0032699406147003174,-0.0058928318321704865
1781789737214033000,5.932032958984375,-0.0254058837890625,-0.007957786321640015,-0.015615509822964668
1781789737230023700,5.948023681640625,-0.013434410095214844,-0.010200686752796173,0.0008900612592697144
1781789737246015500,5.964015380859375,-0.023011207580566406,-0.010255195200443268,0.0008997544646263123
1781789737262007800,5.9800078125,-0.03498077392578125,-0.010362975299358368,-0.008728131651878357
1781789737277994000,5.995993896484375,-0.02779674530029297,-0.0007837265729904175,-0.0040817297995090485
1781789737293968400,6.011968505859375,-0.02779674530029297,-0.010350354015827179,-0.001633286476135254
1781789737309948400,6.027948486328125,-0.032588958740234375,-0.014951027929782867,-0.0038509443402290344
1781789737325929500,6.043929443359375,-0.030195236206054688,0.0017747581005096436,-0.0014079958200454712
1781789737341915100,6.0599150390625,-0.04695320129394531,-0.0030171573162078857,-0.0015069060027599335
1781789737357902800,6.07590283203125,-0.02061748504638672,0.0017166733741760254,0.0032914727926254272
1781789737373886200,6.09188623046875,-0.03976917266845703,-0.0031166523694992065,-0.004136689007282257
1781789737389869000,6.107869140625,-0.03019237518310547,0.008900374174118042,0.005304235965013504
1781789737405854000,6.12385400390625,-0.03258323669433594,0.0064180344343185425,-0.002130415290594101
1781789737421837000,6.139837158203125,-0.03258228302001953,0.0015610456466674805,0.00012154504656791687
1781789737437817000,6.155817138671875,-0.039764404296875,-0.005619212985038757,0.004768539220094681
1781789737453801000,6.171801025390625,-0.03018474578857422,-0.003370031714439392,-0.014485608786344528
1781789737469783000,6.187782958984375,-0.03497600555419922,-0.005618959665298462,-0.002414695918560028
1781789737485757000,6.2037568359375,-0.025396347045898438,-0.003304511308670044,-0.007639821618795395
1781789737501740300,6.219740234375,-0.04215431213378906,-0.00580286979675293,-0.0075925737619400024
1781789737517725200,6.23572509765625,-0.03257560729980469,-0.010635726153850555,0.0017377175390720367
1781789737533713200,6.251713134765625,-0.03497028350830078,-0.003409639000892639,-0.0054390281438827515
1781789737549700900,6.267700927734375,-0.04215240478515625,-0.003403410315513611,-0.007876943796873093
1781789737565687000,6.28368701171875,-0.03736591339111328,-0.0009177178144454956,-0.007930345833301544
1781789737581672700,6.299672607421875,-0.02539348602294922,-0.0009586364030838013,-0.0008956342935562134
1781789737597663000,6.3156630859375,-0.025392532348632812,-0.010599993169307709,0.001453988254070282
1781789737613648600,6.331648681640625,-0.034969329833984375,-0.0009601563215255737,-0.005923442542552948
1781789737629635000,6.347635009765625,-0.02299785614013672,0.003828585147857666,0.0012582354247570038
1781789737645625300,6.363625244140625,-0.022996902465820312,-0.015383385121822357,-0.01080106571316719
1781789737661617000,6.379616943359375,-0.0277862548828125,0.0015246868133544922,-0.0013357773423194885
1781789737677606400,6.3956064453125,-0.025390625,-0.012938521802425385,-0.006120346486568451
1781789737693594400,6.411594482421875,-0.03496742248535156,-0.012938268482685089,-0.0013325735926628113
1781789737709587000,6.4275869140625,-0.032573699951171875,-0.0128379687666893,-0.0014778226613998413
1781789737725581600,6.44358154296875,-0.035086631774902344,0.01203852891921997,0.006604079157114029
1781789737741572900,6.45957275390625,-0.03269195556640625,0.002474077045917511,-0.0006656534969806671
1781789737757562600,6.475562744140625,-0.037479400634765625,-0.004718266427516937,0.004067596048116684
1781789737773553200,6.49155322265625,-0.044661521911621094,0.0023726820945739746,0.013604506850242615
1781789737789545500,6.50754541015625,-0.032688140869140625,0.004664875566959381,-0.0008545368909835815
1781789737805537300,6.523537353515625,-0.02311229705810547,-0.007257528603076935,-0.008004024624824524
1781789737821523200,6.539523193359375,-0.020715713500976562,0.006911754608154297,-0.0032082274556159973
1781789737837513200,6.55551318359375,-0.030294418334960938,0.0022647008299827576,-0.0008114352822303772
1781789737853507600,6.571507568359375,-0.02310943603515625,-0.00017436593770980835,0.006125345826148987
1781789737869497300,6.587497314453125,-0.030292510986328125,0.004526026546955109,-0.010575663298368454
1781789737885484800,6.60348486328125,-0.030292510986328125,0.009402669966220856,-0.001057848334312439
1781789737901476900,6.619476806640625,-0.02071666717529297,0.004584670066833496,-0.015276653692126274
1781789737917476600,6.6354765625,-0.04944324493408203,0.0019398033618927002,-0.0012044906616210938
1781789737933475000,6.65147509765625,-0.032684326171875,0.004424683749675751,-0.01067100465297699
1781789737949463600,6.667463623046875,-0.04226398468017578,0.007106766104698181,0.0013316459953784943
1781789737965454800,6.683454833984375,-0.02550506591796875,-0.0025222301483154297,0.0035941414535045624
1781789737981445600,6.699445556640625,-0.037474632263183594,-0.00495997816324234,0.0035885460674762726
1781789737997437200,6.715437255859375,-0.027896881103515625,0.0117521733045578,0.00587860494852066
1781789738013429000,6.731428955078125,-0.03268241882324219,0.006824672222137451,-0.0038419291377067566
1781789738029421300,6.74742138671875,-0.03746986389160156,0.0018937066197395325,-0.008561942726373672
1781789738045411600,6.76341162109375,-0.023101806640625,0.011327438056468964,0.005561988800764084
1781789738061408000,6.779407958984375,-0.01591968536376953,-0.005347810685634613,-0.0017770081758499146
1781789738077400300,6.795400390625,-0.035071372985839844,-0.012616164982318878,0.0005344636738300323
1781789738093393000,6.811392822265625,-0.03986167907714844,0.0018431991338729858,-0.004355765879154205
1781789738109382400,6.82738232421875,-0.0254974365234375,0.009161047637462616,0.00047837570309638977
1781789738125371600,6.84337158203125,-0.035073280334472656,-0.0005075260996818542,-0.004349891096353531
1781789738141365000,6.859364990234375,-0.025495529174804688,0.0018335208296775818,-0.006805401295423508
1781789738157358800,6.87535888671875,-0.03507041931152344,0.006443232297897339,-0.004463087767362595
1781789738173345800,6.891345703125,-0.025490760803222656,0.006293252110481262,-0.004591271281242371
1781789738189327400,6.907327392578125,-0.020702362060546875,0.023147068917751312,-0.009482096880674362
1781789738205311000,6.92331103515625,-0.01591205596923828,-0.005671650171279907,-0.007339879870414734
1781789738221301500,6.939301513671875,-0.020702362060546875,-0.005478352308273315,0.004454769194126129
1781789738237291000,6.955291015625,-0.030280113220214844,0.011323712766170502,-0.0026521310210227966
1781789738253279700,6.97127978515625,-0.042250633239746094,-0.0006407052278518677,-0.007484868168830872
1781789738269270800,6.987270751953125,-0.037461280822753906,-0.0005949065089225769,-0.00283200666308403
1781789738285262000,7.003261962890625,-0.037459373474121094,0.001614212989807129,-0.005234081298112869
1781789738301247200,7.019247314453125,-0.05182456970214844,-0.010216891765594482,-0.0006827563047409058
1781789738317229300,7.035229248046875,-0.01830768585205078,0.01150810718536377,-0.005658663809299469
1781789738333214000,7.0512138671875,-0.030280113220214844,0.0019858554005622864,0.0039081573486328125
1781789738349195300,7.0671953125,-0.03027820587158203,-0.0028547868132591248,-0.005800075829029083
1781789738365183700,7.083183837890625,-0.018306732177734375,0.0043846964836120605,0.003625333309173584
1781789738381170700,7.099170654296875,-0.030277252197265625,0.006734289228916168,-0.0014094971120357513
1781789738397160400,7.115160400390625,-0.023095130920410156,-0.002705007791519165,0.003283511847257614
1781789738413145600,7.1311455078125,-0.03027820587158203,0.0021332278847694397,0.008034061640501022
1781789738429131300,7.14713134765625,-0.03506660461425781,-0.005043409764766693,-0.003980059176683426
1781789738445119000,7.163118896484375,-0.02548980712890625,-0.00020201504230499268,-0.004229169338941574
1781789738461105200,7.179105224609375,-0.02548980712890625,0.0021923258900642395,-0.004229724407196045
1781789738477094700,7.1950947265625,-0.03506660461425781,-0.004956580698490143,-0.004278726875782013
1781789738493083600,7.211083740234375,-0.03506660461425781,0.011846184730529785,-0.0018780864775180817
1781789738509074000,7.227073974609375,-0.023095130920410156,-0.002462148666381836,-0.0020294860005378723
1781789738525059600,7.2430595703125,-0.025487899780273438,-0.00021291524171829224,0.0002638101577758789
1781789738541042400,7.25904248046875,-0.030275344848632812,-0.00020053982734680176,0.00496508926153183
1781789738557029000,7.275029052734375,-0.042244911193847656,-0.0003480464220046997,-0.004570897668600082
1781789738573016000,7.29101611328125,-0.008727073669433594,0.0021901503205299377,0.007260426878929138
1781789738589002200,7.307002197265625,-0.011118888854980469,0.002084694802761078,-0.01447983831167221
1781789738604986600,7.322986572265625,-0.03027057647705078,0.004339881241321564,-0.0026528574526309967
1781789738620974000,7.33897412109375,-0.025482177734375,-0.00519108772277832,-0.00997086614370346
1781789738636969200,7.35496923828125,-0.035058021545410156,-0.007595092058181763,-0.014814276248216629
1781789738652957700,7.370957763671875,-0.035058021545410156,-0.0004063323140144348,-0.005280889570713043
1781789738668952000,7.3869521484375,-0.018301010131835938,0.006972379982471466,-0.0028949081897735596
1781789738684945700,7.402945556640625,-0.0278778076171875,0.007015809416770935,-0.00528295710682869
1781789738700944100,7.418944091796875,-0.025484085083007812,-0.00007413327693939209,-0.0008357688784599304
1781789738716938200,7.434938232421875,-0.042244911193847656,0.00961090624332428,-0.007968220859766006
1781789738732936000,7.45093603515625,-0.035063743591308594,0.009702928364276886,-0.005534742027521133
1781789738748933000,7.46693310546875,-0.042244911193847656,0.007260315120220184,-0.0007797777652740479
1781789738764926500,7.482926513671875,-0.039852142333984375,0.004914678633213043,-0.005535300821065903
1781789738780912400,7.498912353515625,-0.018303871154785156,0.012050032615661621,-0.007722664624452591
1781789738796900000,7.514900146484375,-0.02069568634033203,0.0022302716970443726,-0.0030313394963741302
1781789738812892700,7.530892578125,-0.02308940887451172,0.014161944389343262,-0.007728502154350281
1781789738828882400,7.54688232421875,-0.018256187438964844,0.006096497178077698,-0.004361838102340698
1781789738844871000,7.562870849609375,-0.03741168975830078,0.008531555533409119,0.0029689520597457886
1781789738860861200,7.578861083984375,-0.03741264343261719,-0.003347635269165039,0.0006143413484096527
1781789738876854300,7.594854248046875,-0.020654678344726562,-0.010486818850040436,0.003014698624610901
1781789738892850400,7.610850341796875,-0.018259048461914062,-0.003347739577293396,-0.0041734762489795685
1781789738908840700,7.6268408203125,-0.025442123413085938,0.0013467371463775635,0.0007161200046539307
1781789738924833800,7.642833740234375,-0.03501605987548828,0.001155748963356018,0.0007510557770729065
1781789738940818400,7.658818359375,-0.025440216064453125,-0.0035754144191741943,0.003303978592157364
1781789738956808000,7.674807861328125,-0.027835845947265625,-0.003536313772201538,-0.0011966526508331299
1781789738972802000,7.690802001953125,-0.030229568481445312,-0.01080552488565445,0.0011846236884593964
1781789738988801000,7.706801025390625,-0.015863418579101562,0.0010717958211898804,-0.001109004020690918
1781789739004794600,7.722794677734375,-0.01825428009033203,-0.003922581672668457,0.0060266777873039246
1781789739020786000,7.738785888671875,-0.02783203125,-0.011101298034191132,0.010912783443927765
1781789739036781300,7.75478125,-0.011072158813476562,-0.008807368576526642,-0.003307480365037918
1781789739052773400,7.7707734375,-0.02782917022705078,-0.01134531944990158,-0.00556260347366333
1781789739068769300,7.786769287109375,-0.03501415252685547,-0.0017140358686447144,0.0016106031835079193
1781789739084764400,7.802764404296875,-0.03740882873535156,-0.008812375366687775,-0.0078118592500686646
1781789739100764000,7.818763916015625,-0.03501605987548828,-0.0040101557970047,-0.00047669559717178345
1781789739116757000,7.834757080078125,-0.02064800262451172,-0.0017612427473068237,0.004211675375699997
1781789739132747000,7.8507470703125,-0.020647048950195312,0.0005349665880203247,0.009003911167383194
1781789739148736300,7.866736328125,-0.015857696533203125,0.007618650794029236,0.0018952079117298126
1781789739164727300,7.882727294921875,-0.023039817810058594,0.0027796030044555664,0.009185194969177246
1781789739180721700,7.8987216796875,-0.03500843048095703,-0.004679486155509949,-0.0028342194855213165
1781789739196714200,7.91471435546875,-0.03500843048095703,-0.0021515190601348877,0.004154738038778305
1781789739212705500,7.93070556640625,-0.02543163299560547,0.0026328712701797485,-0.007913932204246521
1781789739228695000,7.946695068359375,-0.0014867782592773438,-0.0046388208866119385,-0.0009132958948612213
1781789739244691500,7.96269140625,-0.013457298278808594,-0.01186884194612503,-0.001017104834318161
1781789739260681700,7.978681640625,-0.027822494506835938,-0.016659647226333618,0.00391300767660141
1781789739276674800,7.9946748046875,-0.027823448181152344,0.004898205399513245,0.003967277705669403
1781789739292672800,8.0106728515625,-0.023034095764160156,-0.00472201406955719,0.003961123526096344
1781789739308674800,8.0266748046875,-0.011063575744628906,0.000056862831115722656,0.0015110969543457031
1781789739324668700,8.042668701171875,-0.03261089324951172,-0.002287939190864563,0.0134451724588871
1781789739340666600,8.05866650390625,-0.025427818298339844,-0.014260433614253998,-0.005947839468717575
1781789739356661500,8.07466162109375,-0.03260993957519531,-0.009511448442935944,-0.0034621432423591614
1781789739372659500,8.090659423828125,-0.013457298278808594,0.004888981580734253,-0.003272067755460739
1781789739388653800,8.10665380859375,-0.008670806884765625,-0.00693085789680481,-0.0032145418226718903
1781789739404653000,8.122653076171876,-0.00627899169921875,-0.002086445689201355,0.008986182510852814
1781789739420654300,8.138654296875,-0.020643234252929688,-0.006983011960983276,-0.0006410405039787292
1781789739436645600,8.154645751953124,-0.03500938415527344,-0.01411842554807663,-0.000536598265171051
1781789739452635400,8.170635498046876,-0.03500843048095703,-0.0045909583568573,0.001894243061542511
1781789739468625200,8.186625244140625,-0.015851974487304688,-0.007218405604362488,0.006640713661909103
1781789739484611300,8.202611328125,0.0009098052978515625,-0.014546014368534088,0.004145566374063492
1781789739500598000,8.218597900390625,-0.015851974487304688,-0.002429947257041931,-0.0005421824753284454
1781789739516589000,8.234589111328125,-0.023032188415527344,-0.012152038514614105,0.008934590965509415
1781789739532581400,8.250581298828125,-0.035002708435058594,-0.009854353964328766,-0.0003989897668361664
1781789739548574700,8.26657470703125,-0.015848159790039062,-0.005116745829582214,-0.005079131573438644
1781789739564575700,8.28257568359375,-0.013453483581542969,0.0020245909690856934,-0.005226366221904755
1781789739580572400,8.298572509765625,-0.013452529907226562,-0.002724170684814453,-0.012501096352934837
1781789739596566800,8.31456689453125,-0.015848159790039062,-0.017128735780715942,0.009137921035289764
1781789739612561400,8.3305615234375,-0.03500080108642578,-0.0005128979682922363,0.011670876294374466
1781789739628554800,8.3465546875,-0.0278167724609375,-0.005364522337913513,-0.007287599146366119
1781789739644546300,8.36254638671875,-0.011058807373046875,-0.005300074815750122,0.009516991674900055
1781789739660545000,8.378544921875,-0.01345062255859375,-0.003051280975341797,0.0046285949647426605
1781789739676536600,8.39453662109375,-0.03978538513183594,0.0015958696603775024,0.004625923931598663
1781789739692529400,8.410529296875,-0.023027420043945312,-0.0006175041198730469,-0.0050400421023368835
1781789739708524300,8.426524169921874,-0.03021240234375,-0.010086052119731903,0.016557596623897552
1781789739724520200,8.442520263671875,-0.018240928649902344,0.001881137490272522,0.006882797926664352
1781789739740514600,8.4585146484375,-0.015848159790039062,-0.009987883269786835,-0.00020597130060195923
1781789739756507600,8.474507568359375,-0.02302837371826172,-0.002946406602859497,0.006973370909690857
1781789739772497200,8.4904970703125,-0.023029327392578125,-0.0005167126655578613,0.007071297615766525
1781789739788492300,8.5064921875,-0.030213356018066406,-0.01718422770500183,0.0023221783339977264
1781789739804485600,8.522485595703126,-0.027820587158203125,-0.005115002393722534,0.0023177117109298706
1781789739820475100,8.53847509765625,-0.025424957275390625,-0.0004183948040008545,-0.00011635571718215942
1781789739836463900,8.5544638671875,-0.006270408630371094,-0.010099343955516815,0.0023250989615917206
1781789739852454000,8.570453857421874,-0.025423049926757812,-0.01014021784067154,-0.007399905472993851
1781789739868443600,8.586443603515624,-0.037392616271972656,-0.00770394504070282,-0.002845078706741333
1781789739884430800,8.602430908203125,-0.0278167724609375,-0.01477997750043869,-0.0126111451536417
1781789739900425500,8.618425537109376,-0.018240928649902344,-0.0003596991300582886,0.006530925631523132
1781789739916414200,8.634414306640625,-0.011055946350097656,-0.0005554407835006714,-0.0006446242332458496
1781789739932407300,8.6504072265625,-0.011054039001464844,-0.00066336989402771,-0.003089863806962967
1781789739948398300,8.6663984375,-0.018235206604003906,-0.0007019639015197754,-0.0033791661262512207
1781789739964385000,8.682385009765625,-0.011054039001464844,-0.0030042827129364014,0.0062369294464588165
1781789739980377600,8.698377685546875,-0.025419235229492188,-0.010186709463596344,0.008630804717540741
1781789739996369000,8.714368896484375,-0.011053085327148438,-0.0054900795221328735,-0.008168496191501617
1781789740012361700,8.73036181640625,-0.025417327880859375,0.00408288836479187,-0.00347808375954628
1781789740028351700,8.746351806640625,-0.020628929138183594,-0.017468705773353577,-0.0011821575462818146
1781789740044338700,8.762338623046874,-0.030202865600585938,-0.010385371744632721,-0.0014183633029460907
1781789740060324600,8.77832470703125,-0.03020191192626953,-0.0007963776588439941,0.005366656929254532
1781789740076312600,8.7943125,-0.039780616760253906,0.0017888545989990234,0.005331423133611679
1781789740092300500,8.810300537109375,-0.020626068115234375,-0.012579984962940216,0.005233090370893478
1781789740108290800,8.826290771484375,-0.02541637420654297,-0.007687434554100037,-0.001996763050556183
1781789740124290300,8.842290283203125,-0.015837669372558594,-0.010232992470264435,-0.004448149353265762
1781789740140290800,8.858290771484375,-0.03020477294921875,0.004319325089454651,-0.011763393878936768
1781789740156286500,8.874286376953124,-0.027808189392089844,-0.007732078433036804,-0.004637442529201508
1781789740172284200,8.8902841796875,-0.02780914306640625,-0.002866774797439575,-0.004679996520280838
1781789740188279800,8.90627978515625,-0.011049270629882812,-0.0029040277004241943,-0.0023353658616542816
1781789740204271600,8.922271728515625,-0.02302074432373047,-0.014827840030193329,-0.011807739734649658
1781789740220264400,8.938264404296875,-0.023018836975097656,-0.012582667171955109,0.004753075540065765
1781789740236255700,8.954255859375,-0.049353599548339844,-0.0054015666246414185,-0.002668924629688263
1781789740252242200,8.9702421875,-0.02301788330078125,-0.00779193639755249,-0.0025709420442581177
1781789740268231400,8.9862314453125,-0.018228530883789062,0.0040962547063827515,-0.0024855956435203552
1781789740284221200,9.00222119140625,-0.01583385467529297,0.011226668953895569,-0.01458832435309887
1781789740300210400,9.01821044921875,-0.018224716186523438,-0.010419495403766632,0.004259016364812851
1781789740316204000,9.0342041015625,-0.023011207580566406,-0.0008887201547622681,-0.00788714736700058
1781789740332199700,9.05019970703125,-0.034981727600097656,0.001554727554321289,-0.010628711432218552
1781789740348195600,9.066195556640626,-0.0038557052612304688,0.0038534998893737793,-0.0035843215882778168
1781789740364186400,9.082186279296875,-0.011038780212402344,-0.005679577589035034,-0.008367490023374557
1781789740380173600,9.098173583984375,-0.015822410583496094,-0.010718904435634613,-0.00626533105969429
1781789740396168200,9.114168212890625,-0.032581329345703125,-0.008311212062835693,-0.004028670489788055
1781789740412161300,9.130161376953126,-0.03258514404296875,-0.003230258822441101,0.005607970058917999
1781789740428153300,9.1461533203125,-0.02540111541748047,-0.0032983869314193726,-0.004112027585506439
1781789740444145000,9.162144775390624,-0.013429641723632812,-0.005723699927330017,0.002977576106786728
1781789740460140500,9.178140625,-0.013429641723632812,-0.01521214097738266,-0.004264649003744125
1781789740476138000,9.194137939453125,-0.020612716674804688,-0.0008070915937423706,-0.0019629113376140594
1781789740492135200,9.21013525390625,-0.030190467834472656,-0.0007521510124206543,0.0004200786352157593
1781789740508128500,9.22612841796875,-0.025399208068847656,-0.015346325933933258,-0.016284221783280373
1781789740524122000,9.2421220703125,-0.013426780700683594,0.001317724585533142,-0.004451725631952286
1781789740540114000,9.258114013671875,-0.01821613311767578,0.0014157742261886597,-0.0020616501569747925
1781789740556106200,9.274106201171875,-0.027791976928710938,-0.0033822953701019287,0.002671264111995697
1781789740572100400,9.290100341796874,-0.013426780700683594,-0.0033253878355026245,-0.002268534153699875
1781789740588092200,9.306092041015624,-0.02060985565185547,-0.017794758081436157,0.00017290934920310974
1781789740604088800,9.3220888671875,-0.013426780700683594,-0.010611958801746368,0.0025667697191238403
1781789740620088000,9.338088134765625,-0.015821456909179688,-0.0009347051382064819,-0.004761654883623123
1781789740636084700,9.354084716796875,-0.025399208068847656,-0.015210740268230438,0.002291850745677948
1781789740652083200,9.370083251953124,-0.025399208068847656,-0.008028194308280945,-0.0024962574243545532
1781789740668076300,9.386076171875,-0.013427734375,-0.003178820013999939,0.011814933270215988
1781789740684070100,9.402070068359375,-0.011034965515136719,-0.007879391312599182,0.004574257880449295
1781789740700068600,9.418068603515625,-0.02060985565185547,-0.010329730808734894,-0.0004432685673236847
1781789740716070700,9.434070556640625,-0.018215179443359375,-0.012757308781147003,-0.012366164475679398
1781789740732072200,9.450072265625,-0.02539825439453125,-0.0031867772340774536,-0.009927947074174881
1781789740748064800,9.466064697265624,-0.027792930603027344,-0.0006054192781448364,-0.0004840567708015442
1781789740764064300,9.482064208984376,-0.006245613098144531,0.004191547632217407,-0.007851790636777878
1781789740780059000,9.498058837890625,-0.013428688049316406,0.0017949938774108887,-0.0005277767777442932
1781789740796055600,9.5140556640625,-0.008639335632324219,-0.017348691821098328,-0.0079665407538414
1781789740812047600,9.530047607421874,-0.0325775146484375,-0.0007831305265426636,-0.005705781280994415
1781789740828034600,9.54603466796875,-0.03736686706542969,-0.005483314394950867,-0.0057644955813884735
1781789740844020500,9.5620205078125,-0.013423919677734375,0.006389707326889038,-0.01773168332874775
1781789740860004400,9.57800439453125,-0.025396347045898438,0.0017054378986358643,0.003768887370824814
1781789740875991600,9.593991455078125,-0.027790069580078125,-0.0031397491693496704,-0.005657121539115906
1781789740891977000,9.60997705078125,-0.02778911590576172,-0.005626946687698364,-0.0032318122684955597
1781789740907970000,9.625969970703125,-0.02539539337158203,-0.010418586432933807,-0.005725555121898651
1781789740923959000,9.641958984375,-0.018210411071777344,-0.0033681094646453857,-0.005765393376350403
1781789740939945000,9.657945068359375,-0.01581573486328125,0.0014624446630477905,-0.010787677019834518
1781789740955931100,9.67393115234375,-0.013417243957519531,-0.0034750401973724365,-0.008591767400503159
1781789740971920000,9.689919921875,-0.018202781677246094,-0.013284839689731598,-0.001451682299375534
1781789740987907600,9.705907470703124,-0.01820087432861328,-0.008635208010673523,-0.008778944611549377
1781789741003894800,9.721894775390625,-0.027774810791015625,-0.0040413737297058105,0.0007341951131820679
1781789741019883000,9.737883056640625,-0.020592689514160156,-0.006435886025428772,-0.0016590729355812073
1781789741035872300,9.753872314453124,-0.022981643676757812,-0.004327356815338135,0.0029564760625362396
1781789741051861000,9.769861083984376,-0.013401985168457031,-0.0020823031663894653,-0.006818316876888275
1781789741067854300,9.785854248046874,-0.022975921630859375,-0.009364426136016846,-0.004659682512283325
1781789741083849200,9.80184912109375,-0.03255176544189453,-0.007060632109642029,-0.004770606756210327
1781789741099841800,9.817841796875,-0.034942626953125,-0.004909679293632507,-0.007261272519826889
1781789741115832600,9.83383251953125,-0.018181800842285156,0.0021292120218276978,-0.0119105763733387
1781789741131826000,9.849825927734376,-0.02296733856201172,-0.0028094351291656494,-0.007249761372804642
1781789741147819300,9.8658193359375,-0.01578235626220703,-0.0078829824924469,-0.007112972438335419
1781789741163811300,9.881811279296874,-0.013383865356445312,0.0015115141868591309,-0.0024747848510742188
1781789741179803600,9.8978037109375,-0.02296161651611328,-0.012813977897167206,-0.0145382359623909
1781789741195797800,9.9137978515625,-0.02064037322998047,-0.003681287169456482,-0.0014853626489639282
1781789741211790000,9.9297900390625,-0.008667945861816406,0.0010535717010498047,-0.01591070555150509
1781789741227784400,9.945784423828124,-0.018240928649902344,-0.00876665860414505,-0.006430033594369888
1781789741243776800,9.96177685546875,-0.01345062255859375,-0.006505593657493591,-0.004222225397825241
1781789741259766500,9.9777666015625,-0.03499603271484375,0.005365818738937378,-0.004457492381334305
1781789741275757300,9.99375732421875,-0.030203819274902344,-0.01636834442615509,-0.007099557667970657
1781789741291750700,10.009750732421875,-0.013440132141113281,-0.00948970764875412,-0.00714261457324028
1781789741307747300,10.025747314453126,-0.020623207092285156,-0.0022948384284973145,-0.000046558678150177
1781789741323744500,10.04174462890625,-0.020620346069335938,-0.004886120557785034,0.002425726503133774
1781789741339740000,10.057739990234374,-0.006255149841308594,-0.0048735737800598145,-0.000055946409702301025
1781789741355737300,10.0737373046875,-0.032588958740234375,-0.009813062846660614,0.004674650728702545
1781789741371733000,10.08973291015625,-0.018218994140625,-0.0005341172218322754,-0.004988331347703934
1781789741387734800,10.10573486328125,-0.018217086791992188,-0.015028692781925201,-0.01704787276685238
1781789741403733000,10.12173291015625,-0.0110321044921875,-0.008097782731056213,-0.0025942958891391754
1781789741419725600,10.1377255859375,-0.018213272094726562,-0.008099302649497986,0.0019547082483768463
1781789741435719000,10.153718994140625,-0.039760589599609375,-0.008236438035964966,-0.007527392357587814
1781789741451717600,10.169717529296875,-0.02778339385986328,-0.010954521596431732,-0.0028914697468280792
1781789741467714000,10.185714111328124,-0.04214668273925781,-0.006322503089904785,-0.0005814358592033386
1781789741483712000,10.2017119140625,-0.030176162719726562,-0.0015276819467544556,0.0041629113256931305
1781789741499704000,10.2177041015625,-0.011020660400390625,0.010344430804252625,-0.010128386318683624
1781789741515695400,10.2336953125,-0.02538585662841797,-0.006508886814117432,-0.007632996886968613
1781789741531689200,10.249689208984375,-0.025384902954101562,-0.008950337767601013,0.0018396638333797455
1781789741547680800,10.2656806640625,-0.03256416320800781,-0.009039744734764099,0.0016580671072006226
1781789741563675400,10.28167529296875,-0.04214000701904297,-0.004359051585197449,-0.00318169966340065
1781789741579667000,10.2976669921875,-0.015802383422851562,-0.009239301085472107,-0.003221288323402405
1781789741595657700,10.31365771484375,-0.008617401123046875,-0.009329646825790405,-0.010515116155147552
1781789741611648800,10.329648681640625,-0.03016376495361328,-0.009521529078483582,-0.00562170147895813
1781789741627642000,10.34564208984375,-0.022979736328125,-0.009623348712921143,0.001466747373342514
1781789741643627000,10.361626953125,-0.020582199096679688,-0.00742165744304657,-0.00831451267004013
1781789741659612400,10.3776123046875,-0.025366783142089844,-0.012397117912769318,-0.003704249858856201
1781789741675609600,10.393609619140625,-0.02309131622314453,-0.004383780062198639,0.004734843969345093
1781789741691602400,10.4096025390625,-0.015909194946289062,0.00999496877193451,-0.00021138787269592285
1781789741707596800,10.4255966796875,-0.02069377899169922,0.0026148036122322083,-0.00044284015893936157
1781789741723598600,10.4415986328125,-0.018296241760253906,0.0024619847536087036,-0.0007392950356006622
1781789741739604500,10.4576044921875,-0.011114120483398438,-0.009496942162513733,0.001568671315908432
1781789741755609600,10.473609619140625,-0.018293380737304688,0.00231894850730896,-0.008163053542375565
1781789741771609000,10.489609130859375,-0.025475502014160156,0.004571549594402313,-0.005770847201347351
1781789741787608800,10.50560888671875,-0.037444114685058594,0.0021352767944335938,0.008517179638147354
1781789741803609000,10.521609130859375,-0.030260086059570312,-0.010020256042480469,0.0013252124190330505
1781789741819606800,10.537606689453124,-0.020679473876953125,-0.0006531849503517151,-0.0012141726911067963
1781789741835603200,10.553603271484375,-0.0230712890625,0.00404946506023407,-0.0036910995841026306
1781789741851597000,10.56959716796875,-0.027858734130859375,-0.005584321916103363,0.0057263970375061035
1781789741867591000,10.5855908203125,-0.025463104248046875,0.0014566779136657715,-0.006246622651815414
1781789741883589400,10.60158935546875,-0.04461669921875,0.0015026703476905823,-0.003988273441791534
1781789741899586300,10.61758642578125,-0.015885353088378906,-0.005770601332187653,-0.004098575562238693
1781789741915586600,10.633586669921876,-0.015883445739746094,-0.005822665989398956,-0.0018361173570156097
1781789741931585500,10.64958544921875,-0.015882492065429688,-0.001177862286567688,-0.006486020982265472
1781789741947587600,10.665587646484376,-0.01827526092529297,0.0035755857825279236,-0.006677001714706421
1781789741963585500,10.68158544921875,-0.013486862182617188,-0.0036029890179634094,-0.008973535150289536
1781789741979584800,10.697584716796875,-0.018274307250976562,-0.0012673810124397278,-0.004272818565368652
1781789741995589600,10.713589599609374,-0.027851104736328125,0.0011801272630691528,-0.004522811621427536
1781789742011587300,10.72958740234375,-0.02785205841064453,-0.003510214388370514,-0.004526916891336441
1781789742027582000,10.74558203125,-0.027849197387695312,-0.0060494691133499146,-0.0022333599627017975
1781789742043580700,10.76158056640625,-0.03503227233886719,-0.010886289179325104,0.0025216080248355865
1781789742059581700,10.777581787109375,-0.025455474853515625,-0.0013159438967704773,0.00496012344956398
1781789742075575300,10.7935751953125,-0.023059844970703125,0.01304173469543457,-0.0072074271738529205
1781789742091571200,10.8095712890625,-0.0278472900390625,0.003477223217487335,-0.009688477963209152
1781789742107573200,10.8255732421875,-0.02305889129638672,0.001036025583744049,-0.007399033755064011
1781789742123571200,10.8415712890625,-0.025450706481933594,0.005773536860942841,-0.01478409394621849
1781789742139571500,10.857571533203124,-0.025453567504882812,-0.0036163553595542908,-0.0053396075963974
1781789742155571200,10.8735712890625,-0.020664215087890625,-0.010790154337882996,-0.010313730686903
1781789742171567000,10.889567138671875,-0.01826953887939453,-0.0035652965307235718,-0.010236870497465134
1781789742187560000,10.905559814453126,-0.015875816345214844,0.0059695616364479065,0.008838985115289688
1781789742203552800,10.921552734375,-0.027841567993164062,-0.011080063879489899,-0.00812167301774025
1781789742219555800,10.937555908203125,-0.03023529052734375,-0.006289400160312653,-0.008262798190116882
1781789742235553500,10.953553466796874,-0.03263092041015625,0.0009344220161437988,-0.01051001250743866
1781789742251552800,10.969552734375,-0.020661354064941406,0.003420718014240265,0.008682593703269958
1781789742267553500,10.985553466796874,-0.015871047973632812,-0.0038514509797096252,-0.0034691356122493744
1781789742283551000,11.001551025390626,-0.03262901306152344,0.0032443031668663025,-0.003481440246105194
1781789742299552500,11.017552490234374,-0.03262805938720703,-0.0039456188678741455,0.001110076904296875
1781789742315545600,11.033545654296875,-0.03262615203857422,-0.006391957402229309,-0.0038099102675914764
1781789742331530500,11.049530517578125,-0.025442123413085938,-0.0017485395073890686,-0.003910847008228302
1781789742347512600,11.0655126953125,-0.023049354553222656,-0.006391666829586029,-0.008599337190389633
1781789742363504400,11.08150439453125,-0.020656585693359375,-0.008637145161628723,0.005654077976942062
1781789742379498200,11.097498291015626,-0.008684158325195312,0.010364368557929993,-0.00390985980629921
1781789742395485700,11.113485595703125,-0.02783679962158203,0.0007502958178520203,-0.0015652291476726532
1781789742411479600,11.1294794921875,-0.025443077087402344,-0.011166073381900787,-0.013546504080295563
1781789742427475200,11.14547509765625,-0.02304840087890625,-0.004038035869598389,0.0032228901982307434
1781789742443472600,11.16147265625,-0.018258094787597656,-0.0041893646121025085,-0.004016909748315811
1781789742459469000,11.177468994140625,-0.02064990997314453,0.002803608775138855,-0.008841406553983688
1781789742475465500,11.193465576171874,-0.008677482604980469,0.005160532891750336,-0.0017083846032619476
1781789742491459600,11.20945947265625,-0.027831077575683594,-0.00442630797624588,-0.008945267647504807
1781789742507450000,11.2254501953125,-0.01825428009033203,-0.004420317709445953,0.0005885660648345947
1781789742523442400,11.2414423828125,-0.03262138366699219,-0.0018805861473083496,-0.004100542515516281
1781789742539440600,11.257440673828125,-0.023040771484375,-0.002027079463005066,-0.004440460354089737
1781789742555432400,11.273432373046875,-0.018255233764648438,0.0005690678954124451,-0.002096995711326599
1781789742571422700,11.289422607421875,-0.025437355041503906,-0.0018835291266441345,-0.004579208791255951
1781789742587420400,11.30542041015625,-0.030223846435546875,-0.004330940544605255,-0.009428668767213821
1781789742603414800,11.321414794921875,-0.023041725158691406,-0.006675496697425842,-0.0142546147108078
1781789742619404500,11.337404541015625,-0.020648956298828125,-0.00892089307308197,-0.007184091955423355
1781789742635394300,11.353394287109374,-0.030225753784179688,-0.004092693328857422,-0.007276240736246109
1781789742651386600,11.36938671875,-0.020647048950195312,-0.0017912238836288452,-0.0026204846799373627
1781789742667375600,11.385375732421876,-0.023041725158691406,0.007834337651729584,-0.0073763467371463776
1781789742683364900,11.40136474609375,-0.01825428009033203,0.0031564682722091675,-0.005073435604572296
1781789742699356000,11.41735595703125,-0.03262042999267578,-0.0016442984342575073,-0.0025921016931533813
1781789742715351000,11.43335107421875,-0.01585865020751953,0.01013319194316864,-0.009909026324748993
1781789742731344400,11.449344482421875,-0.01824951171875,0.0029059648513793945,0.0018155276775360107
1781789742747333600,11.465333740234374,-0.030221939086914062,0.0005615502595901489,-0.010193061083555222
1781789742763320300,11.4813203125,-0.023039817810058594,-0.0018349066376686096,-0.01962875761091709
1781789742779310600,11.497310546875,-0.01824951171875,0.00047469139099121094,-0.0030227601528167725
1781789742795300600,11.513300537109375,-0.030221939086914062,0.0029555410146713257,-0.005404345691204071
1781789742811295700,11.529295654296876,-0.018250465393066406,0.0006182268261909485,-0.0031615421175956726
1781789742827283700,11.54528369140625,-0.0206451416015625,0.003012627363204956,-0.0007676519453525543
1781789742843269000,11.56126904296875,-0.03740119934082031,-0.016290001571178436,-0.01054304838180542
1781789742859260000,11.577260009765626,-0.04458141326904297,0.007406741380691528,-0.015287123620510101
1781789742875243300,11.5932431640625,-0.01584911346435547,0.00008880347013473511,-0.012938365340232849
1781789742891228400,11.609228515625,-0.018239974975585938,-0.012032456696033478,0.0036934614181518555
1781789742907213000,11.625213134765625,-0.03978919982910156,-0.000006951391696929932,-0.001104649156332016
1781789742923200300,11.6412001953125,-0.020633697509765625,-0.009645923972129822,-0.003685127943754196
1781789742939190000,11.65718994140625,-0.0278167724609375,-0.0046627819538116455,0.0008555985987186432
1781789742955179800,11.6731796875,-0.027814865112304688,-0.007198333740234375,-0.00393541157245636
1781789742971172000,11.689172119140625,-0.0038728713989257812,0.00008080899715423584,-0.006573151797056198
1781789742987161900,11.705161865234375,-0.03020954132080078,0.00009338557720184326,-0.004266403615474701
1781789743003149300,11.7211494140625,-0.023024559020996094,-0.004846207797527313,-0.006717801094055176
1781789743019133400,11.737133544921875,-0.03260040283203125,-0.00011257827281951904,-0.006707500666379929
1781789743035119000,11.753119140625,-0.03020954132080078,0.004821270704269409,-0.011395912617444992
1781789743051110000,11.76910986328125,-0.03738975524902344,-0.004846058785915375,-0.009112581610679626
1781789743067096300,11.785096435546874,-0.027811050415039062,-0.004991032183170319,-0.009213507175445557
1781789743083081000,11.8010810546875,-0.027811050415039062,-0.00015921145677566528,-0.0020247548818588257
1781789743099069700,11.817069580078124,-0.027812957763671875,-0.000018075108528137207,-0.004416022449731827
1781789743115059000,11.833058837890626,-0.027811050415039062,-0.014414064586162567,-0.004509922116994858
1781789743131047200,11.849047119140625,-0.03259849548339844,-0.012121394276618958,-0.006998896598815918
1781789743147036400,11.865036376953125,-0.0397796630859375,-0.014613322913646698,-0.006995674222707748
1781789743163022000,11.88102197265625,-0.025508880615234375,-0.007143788039684296,-0.01025475189089775
1781789743179010800,11.8970107421875,-0.027901649475097656,-0.0047967806458473206,0.004006046801805496
1781789743194999600,11.91299951171875,-0.03747749328613281,0.00474897027015686,-0.0008756369352340698
1781789743210986000,11.928986083984375,-0.0374755859375,0.0022927820682525635,0.008514586836099625
1781789743226974200,11.94497412109375,-0.015928268432617188,-0.007223352789878845,0.0012788623571395874
1781789743242966800,11.960966796875,-0.02071666717529297,0.007083691656589508,0.003584451973438263
1781789743258954000,11.9769541015625,-0.013533592224121094,-0.004828855395317078,-0.010693024843931198
1781789743274948400,11.9929482421875,-0.01832294464111328,0.007179468870162964,-0.00824953243136406
1781789743290940200,12.008940185546875,-0.011141777038574219,0.007240191102027893,0.0012738779187202454
1781789743306932200,12.02493212890625,-0.0374755859375,0.01187855750322342,0.001145973801612854
1781789743322917000,12.040917236328125,-0.03268623352050781,-0.007324330508708954,-0.0012118369340896606
1781789743338904600,12.056904541015625,-0.039867401123046875,0.004541024565696716,-0.003798186779022217
1781789743354891300,12.072891357421875,-0.030289649963378906,0.009292401373386383,-0.011030953377485275
1781789743370881000,12.088881103515625,-0.027894973754882812,0.009335637092590332,-0.013418693095445633
1781789743386868500,12.104868408203124,-0.011134147644042969,0.006796389818191528,0.0008458904922008514
1781789743402858200,12.120858154296876,-0.027891159057617188,0.011349290609359741,0.0033392980694770813
1781789743418850000,12.13685009765625,-0.023100852966308594,0.0016755908727645874,0.0008785054087638855
1781789743434840600,12.152840576171876,-0.030284881591796875,0.006413079798221588,0.0033809952437877655
1781789743450833700,12.168833740234374,-0.023099899291992188,0.008763723075389862,0.003375403583049774
1781789743466820600,12.184820556640625,-0.02070903778076172,0.013740606606006622,-0.003700423985719681
1781789743482809300,12.200809326171875,-0.03746795654296875,0.004214480519294739,-0.0014139153063297272
1781789743498795000,12.216794921875,-0.01113128662109375,-0.000766262412071228,0.0034804455935955048
1781789743514781000,12.232781005859374,-0.030286788940429688,0.009012982249259949,0.008216910064220428
1781789743530768000,12.248767822265625,-0.025499343872070312,0.0018716603517532349,-0.0036068595945835114
1781789743546754300,12.26475439453125,-0.027892112731933594,0.001773923635482788,0.00597318634390831
1781789743562743600,12.28074365234375,-0.027891159057617188,-0.00785604864358902,-0.0012707337737083435
1781789743578742300,12.2967421875,-0.02789020538330078,0.00411735475063324,-0.003806624561548233
1781789743594735400,12.3127353515625,-0.025493621826171875,-0.0032586604356765747,-0.008729379624128342
1781789743610729500,12.3287294921875,-0.018312454223632812,0.016053475439548492,0.0007905103266239166
1781789743626722300,12.344722412109375,-0.03507232666015625,0.006516449153423309,0.0006983578205108643
1781789743642710800,12.360710693359374,-0.02309894561767578,0.003971219062805176,-0.008936502039432526
1781789743658696000,12.376696044921875,-0.032675743103027344,-0.0031680166721343994,-0.004141654819250107
1781789743674687500,12.3926875,-0.013520240783691406,0.0014811158180236816,-0.0018908828496932983
1781789743690673700,12.408673583984376,-0.030277252197265625,-0.0010582953691482544,-0.004385273903608322
1781789743706666200,12.424666259765624,-0.039855003356933594,-0.0033967718482017517,-0.004465963691473007
1781789743722654000,12.440654052734375,-0.03027820587158203,0.0037734955549240112,-0.004379246383905411
1781789743738644500,12.45664453125,-0.030277252197265625,0.01331532746553421,-0.004569832235574722
1781789743754638300,12.472638427734376,-0.02548694610595703,0.0036850646138191223,0.004946533590555191
1781789743770628600,12.488628662109376,-0.023092269897460938,0.006024755537509918,-0.002226371318101883
1781789743786622700,12.504622802734374,-0.02069854736328125,0.00603097677230835,-0.011846873909235
1781789743802612000,12.520612060546876,-0.030275344848632812,-0.008279658854007721,0.007296759635210037
1781789743818601200,12.536601318359375,-0.02309131622314453,0.006039455533027649,0.002333499491214752
1781789743834590500,12.552590576171875,-0.035060882568359375,0.005881786346435547,0.002320587635040283
1781789743850583000,12.5685830078125,-0.02787494659423828,0.015282310545444489,-0.0026614144444465637
1781789743866577000,12.584576904296876,-0.03266143798828125,0.0008586421608924866,-0.0027491413056850433
1781789743882572000,12.600572021484375,-0.020692825317382812,0.00330488383769989,-0.0074057914316654205
1781789743898568000,12.61656787109375,-0.0230865478515625,0.005784370005130768,-0.002844199538230896
1781789743914556400,12.632556396484375,-0.030269622802734375,0.005707450211048126,-0.0004074573516845703
1781789743930547000,12.648546875,-0.011114120483398438,0.0033555403351783752,-0.010218676179647446
1781789743946536700,12.66453662109375,-0.03026580810546875,0.000777021050453186,0.011319465935230255
1781789743962528800,12.68052880859375,-0.01829242706298828,-0.006507411599159241,-0.0007457025349140167
1781789743978513000,12.696512939453125,-0.018293380737304688,0.0007656142115592957,0.001448407769203186
1781789743994500000,12.7125,-0.023080825805664062,-0.008853457868099213,-0.0010226517915725708
1781789744010487300,12.7284873046875,-0.013504981994628906,-0.0015726685523986816,-0.0010267943143844604
1781789744026473000,12.744472900390624,-0.023082733154296875,0.010486423969268799,0.0037029311060905457
1781789744042462200,12.760462158203126,-0.003925323486328125,0.005500592291355133,-0.01089431717991829
1781789744058454300,12.776454345703126,-0.02547168731689453,0.010241694748401642,-0.0014213547110557556
1781789744074443500,12.792443603515625,-0.027864456176757812,0.01728903502225876,0.003321286290884018
1781789744090425600,12.808425537109375,-0.030259132385253906,0.010109096765518188,-0.008792012929916382
1781789744106411000,12.824410888671874,-0.020682334899902344,0.0005657821893692017,-0.008840721100568771
1781789744122399500,12.8403994140625,-0.03744029998779297,-0.0018144845962524414,-0.0018165670335292816
1781789744138385700,12.8563857421875,-0.013497352600097656,-0.006653629243373871,-0.006496995687484741
1781789744154375200,12.872375244140626,-0.03504657745361328,-0.004156447947025299,-0.0019961223006248474
1781789744170367500,12.888367431640624,-0.011103630065917969,-0.006504826247692108,-0.006920062005519867
1781789744186359800,12.90435986328125,-0.025467872619628906,0.012552298605442047,-0.006987825036048889
1781789744202352400,12.920352294921875,-0.01349639892578125,0.007767140865325928,-0.011772282421588898
1781789744218342100,12.936342041015624,-0.01828289031982422,0.007728599011898041,-0.009667664766311646
1781789744234334200,12.952334228515625,-0.015888214111328125,0.014897316694259644,-0.0026373155415058136
1781789744250327300,12.968327392578125,-0.02785778045654297,0.000540710985660553,-0.007611121982336044
1781789744266323000,12.984322998046874,-0.0206756591796875,0.007723234593868256,-0.00042824074625968933
1781789744282321200,13.000321044921876,-0.02306842803955078,-0.004257753491401672,-0.005271211266517639
1781789744298307600,13.0163076171875,-0.02546215057373047,0.005233384668827057,-0.005354095250368118
1781789744314299600,13.032299560546875,-0.01827716827392578,0.002698056399822235,-0.0005685947835445404
1781789744330295600,13.048295654296876,-0.025460243225097656,0.0026944801211357117,-0.007849786430597305
1781789744346294300,13.064294189453125,-0.02306365966796875,-0.006990306079387665,-0.0031121112406253815
1781789744362286000,13.0802861328125,-0.03024578094482422,0.0025428757071495056,-0.01269475743174553
1781789744378276400,13.0962763671875,-0.04700279235839844,-0.014355167746543884,-0.005656793713569641
1781789744394264800,13.112264892578125,-0.015875816345214844,0.0022604912519454956,-0.013011295348405838
1781789744410256600,13.128256591796875,-0.02066326141357422,0.004601277410984039,-0.0034952014684677124
1781789744426247400,13.144247314453125,-0.025450706481933594,-0.000224381685256958,-0.001150578260421753
1781789744442239700,13.16023974609375,-0.02544879913330078,-0.007545746862888336,-0.010871987789869308
1781789744458232000,13.176232177734375,-0.020658493041992188,0.011506043374538422,-0.0061777494847774506
1781789744474232000,13.192232177734375,-0.03023815155029297,0.0021137967705726624,-0.008562877774238586
1781789744490225200,13.20822509765625,-0.02544879913330078,-0.002678513526916504,-0.006266377866268158
1781789744506213600,13.224213623046875,-0.020659446716308594,0.002062283456325531,-0.003975432366132736
1781789744522199600,13.240199462890626,-0.020656585693359375,0.004267968237400055,-0.006476659327745438
1781789744538188500,13.2561884765625,-0.037413597106933594,0.004178442060947418,0.0005249455571174622
1781789744554183700,13.27218359375,-0.03262519836425781,0.004228278994560242,-0.00908973440527916
1781789744570172700,13.288172607421876,-0.035017967224121094,-0.0006619319319725037,-0.006789684295654297
1781789744586166500,13.30416650390625,-0.032622337341308594,-0.003059975802898407,-0.00449347123503685
1781789744602158000,13.320157958984375,-0.0302276611328125,-0.005540482699871063,-0.004506990313529968
1781789744618148000,13.336148193359374,-0.018256187438964844,0.004071876406669617,0.0000919140875339508
1781789744634135000,13.352135009765625,-0.0254364013671875,0.0038995593786239624,-0.000003721565008163452
1781789744650123800,13.368123779296875,-0.023042678833007812,-0.008083678781986237,0.00008283555507659912
1781789744666113500,13.384113525390624,-0.015860557556152344,-0.00803007185459137,-0.007039371877908707
1781789744682098200,13.40009814453125,-0.027831077575683594,-0.0009004548192024231,-0.007101267576217651
1781789744698086100,13.416086181640624,-0.023042678833007812,-0.007982753217220306,-0.004852306097745895
1781789744714071600,13.432071533203125,-0.03740692138671875,-0.01272282749414444,-0.00034117698669433594
1781789744730052600,13.448052490234375,-0.027828216552734375,-0.0031871795654296875,-0.0076710544526577
1781789744746036200,13.4640361328125,-0.03501129150390625,-0.0007964000105857849,-0.010164432227611542
1781789744762022000,13.48002197265625,-0.018248558044433594,0.006237126886844635,-0.007968533784151077
1781789744778010600,13.4960107421875,-0.027823448181152344,-0.005876727402210236,-0.0055053383111953735
1781789744801991400,13.519991455078125,-0.03979301452636719,-0.0012333616614341736,-0.003211766481399536
1781789744817980200,13.535980224609375,-0.025424957275390625,-0.0013214275240898132,-0.010646678507328033
1781789744833970700,13.551970703125,-0.03739452362060547,-0.015694156289100647,-0.015631642192602158
1781789744849961200,13.567961181640625,-0.025519371032714844,0.002578243613243103,0.001423712819814682
1781789744865956600,13.58395654296875,-0.01594257354736328,0.002534925937652588,-0.0033713988959789276
1781789744881948000,13.599947998046876,-0.018337249755859375,0.0026330947875976562,0.0038070641458034515
1781789744897944300,13.6159443359375,-0.03270149230957031,0.009818017482757568,0.006059855222702026
1781789744913935600,13.631935546875,-0.02312469482421875,0.0050260648131370544,0.008355196565389633
1781789744929932800,13.647932861328124,-0.020730018615722656,-0.0022172480821609497,0.0036201998591423035
1781789744945931300,13.66393115234375,-0.01594066619873047,-0.002291560173034668,-0.0012679435312747955
1781789744961932000,13.67993212890625,-0.018334388732910156,-0.002301536500453949,-0.006110914051532745
1781789744977930800,13.6959306640625,-0.018332481384277344,-0.00488782674074173,0.005965463817119598
1781789744993923300,13.71192333984375,-0.018332481384277344,0.007187075912952423,-0.003658011555671692
1781789745009921800,13.727921875,-0.030305862426757812,0.002429977059364319,0.0036172866821289062
1781789745025915000,13.743914794921874,-0.02072620391845703,0.0022885575890541077,0.010797567665576935
1781789745041905000,13.75990478515625,-0.025514602661132812,0.0045851171016693115,-0.00356496125459671
1781789745057895200,13.775895263671876,-0.027907371520996094,-0.00024653971195220947,-0.001177225261926651
1781789745073886700,13.79188671875,-0.027907371520996094,0.0021540671586990356,0.003567170351743698
1781789745097874400,13.81587451171875,-0.03269386291503906,0.011593341827392578,-0.003520064055919647
1781789745121860600,13.839860595703126,-0.02790355682373047,-0.005365587770938873,0.0035713426768779755
1781789745137851100,13.85585107421875,-0.035086631774902344,0.0018618330359458923,-0.0012822039425373077
1781789745153840000,13.871840087890625,-0.042267799377441406,-0.0052686408162117004,0.0033269263803958893
1781789745169832200,13.887832275390625,-0.03029632568359375,-0.007770806550979614,-0.003906413912773132
1781789745185813800,13.903813720703125,-0.02311229705810547,-0.0030628591775894165,-0.008751150220632553
1781789745201799400,13.91979931640625,-0.035083770751953125,-0.0030587390065193176,0.005711179226636887
1781789745217790700,13.935790771484376,-0.027896881103515625,-0.0009622722864151001,0.017595384269952774
1781789745233781000,13.951781005859376,-0.003952980041503906,0.003690578043460846,0.0007910989224910736
1781789745249771300,13.967771240234375,-0.032684326171875,0.00617661327123642,0.0032248981297016144
1781789745265760500,13.983760498046875,-0.030289649963378906,-0.0011016502976417542,-0.004095297306776047
1781789745281746700,13.99974658203125,-0.015924453735351562,0.001349225640296936,0.007724922150373459
1781789745297735700,14.015735595703125,-0.03507804870605469,-0.001011289656162262,0.005281709134578705
1781789745313721600,14.0317216796875,-0.020712852478027344,0.0013831332325935364,0.0004927143454551697
1781789745329709300,14.047709228515625,-0.02071094512939453,-0.003506802022457123,-0.0019965320825576782
1781789745345693200,14.063693115234376,-0.023101806640625,-0.00611664354801178,0.007477905601263046
1781789745361681400,14.079681396484375,-0.03746509552001953,-0.0013964325189590454,0.0001524128019809723
1781789745377672000,14.095671875,-0.020704269409179688,0.000868670642375946,0.002457432448863983
1781789745393666600,14.11166650390625,-0.02549457550048828,0.005788549780845642,-0.004777688533067703
1781789745409664500,14.12766455078125,-0.015916824340820312,-0.001430995762348175,0.002354465425014496
1781789745425652200,14.14365234375,-0.027887344360351562,0.008181333541870117,-0.002623163163661957
1781789745441643500,14.1596435546875,-0.02549266815185547,0.008183911442756653,-0.007553577423095703
1781789745457636600,14.17563671875,-0.02309703826904297,0.005792289972305298,-0.002907179296016693
1781789745473622000,14.1916220703125,-0.02070331573486328,0.0009604617953300476,-0.0029133372008800507
1781789745489611000,14.207611083984375,-0.006337165832519531,0.0009209141135215759,0.004267282783985138
1781789745505599000,14.223598876953124,-0.02548980712890625,0.005750961601734161,-0.005542177706956863
1781789745521587500,14.23958740234375,-0.01591205596923828,0.0008546337485313416,0.013560425490140915
1781789745537575700,14.25557568359375,-0.01591014862060547,-0.004118598997592926,-0.0032074451446533203
1781789745553565400,14.2715654296875,-0.020697593688964844,0.00781538337469101,-0.0008634217083454132
1781789745569550800,14.28755078125,-0.030272483825683594,0.0005745589733123779,-0.010528534650802612
1781789745585540600,14.30354052734375,-0.025484085083007812,0.0029251575469970703,-0.0009575746953487396
1781789745601523000,14.31952294921875,-0.025483131408691406,-0.0019214674830436707,0.0013483203947544098
1781789745617508600,14.335508544921876,-0.030267715454101562,-0.006933197379112244,0.0010499991476535797
1781789745633497900,14.351497802734375,-0.0182952880859375,-0.006940767168998718,-0.003934543579816818
1781789745649487400,14.3674873046875,-0.039844512939453125,-0.00214453786611557,0.005837798118591309
1781789745665480700,14.383480712890625,-0.02787303924560547,0.000338822603225708,-0.0014739148318767548
1781789745681475600,14.3994755859375,-0.020689964294433594,-0.0068478211760520935,-0.0015715882182121277
1781789745697465600,14.415465576171876,-0.02787017822265625,0.0025836601853370667,-0.008853808045387268
1781789745713454800,14.431454833984375,-0.015898704528808594,0.00967443734407425,-0.001710791140794754
1781789745729444000,14.447444091796875,-0.027868270874023438,0.0001009032130241394,-0.0043167844414711
1781789745745435100,14.46343505859375,-0.027869224548339844,-0.004640303552150726,-0.0042123571038246155
1781789745761421600,14.479421630859376,-0.035053253173828125,-0.00449652224779129,-0.004351746290922165
1781789745777409500,14.495409423828125,-0.02308177947998047,0.002686023712158203,-0.0067456550896167755
1781789745793395000,14.51139501953125,-0.04223442077636719,-0.002106405794620514,0.000339265912771225
1781789745809379000,14.527379150390624,-0.025472640991210938,0.002489738166332245,-0.007048375904560089
1781789745825363000,14.543363037109375,-0.023077964782714844,0.002439253032207489,-0.009335201233625412
1781789745841344000,14.559343994140624,-0.039836883544921875,0.014312274754047394,-0.0045429617166519165
1781789745857335000,14.5753349609375,-0.04462718963623047,0.007191658020019531,0.0028262287378311157
1781789745873329700,14.59132958984375,-0.01829051971435547,-0.007130369544029236,0.0004387795925140381
1781789745889326800,14.607326904296874,-0.02547168731689453,0.004741370677947998,-0.009374190121889114
1781789745905325300,14.6233251953125,-0.02068328857421875,0.009574554860591888,-0.007044859230518341
1781789745921319400,14.6393193359375,-0.037445068359375,0.007379062473773956,-0.011672519147396088
1781789745937312800,14.655312744140625,-0.003926277160644531,-0.014218255877494812,-0.002058733254671097
1781789745953304000,14.671303955078125,-0.03265857696533203,-0.002145230770111084,-0.0019648894667625427
1781789745969301000,14.687301025390624,-0.0182952880859375,-0.002055622637271881,0.005398012697696686
1781789745985296400,14.70329638671875,-0.02308368682861328,-0.0020117685198783875,0.0030090436339378357
1781789746001289700,14.719289794921876,-0.027872085571289062,-0.006843537092208862,-0.006574191153049469
1781789746017282800,14.73528271484375,-0.035056114196777344,-0.004295617341995239,0.000523887574672699
1781789746033278200,14.7512783203125,-0.039844512939453125,0.00770888477563858,-0.0019190236926078796
1781789746049273000,14.767273193359374,-0.030267715454101562,-0.009040094912052155,0.007711444050073624
1781789746065260800,14.7832607421875,-0.025480270385742188,0.005318954586982727,-0.00661034882068634
1781789746081253400,14.79925341796875,-0.030267715454101562,-0.001955166459083557,0.0029259957373142242
1781789746097245000,14.815244873046876,-0.032660484313964844,-0.006797179579734802,-0.0019228234887123108
1781789746113239300,14.8312392578125,-0.013507843017578125,-0.004265397787094116,0.00037572160363197327
1781789746129236000,14.847236083984376,-0.02547740936279297,0.00047829747200012207,-0.0046584270894527435
1781789746145232100,14.863232177734375,-0.015901565551757812,-0.0018665865063667297,-0.004695098847150803
1781789746161231000,14.879231201171875,-0.027872085571289062,0.0005847588181495667,-0.002452891319990158
1781789746177230000,14.89522998046875,-0.037448883056640625,0.0006343349814414978,-0.012066967785358429
1781789746193227300,14.911227294921876,-0.03505516052246094,-0.008897893130779266,0.004627887159585953
1781789746209222000,14.927221923828125,-0.02547931671142578,0.0031661689281463623,-0.0025861188769340515
1781789746225219000,14.943218994140626,-0.03984260559082031,0.01019732654094696,-0.007431119680404663
1781789746241214000,14.9592138671875,-0.03265857696533203,-0.01133807748556137,-0.0027301348745822906
1781789746257212200,14.975212158203124,-0.0135040283203125,0.00771486759185791,0.004287607967853546
1781789746273203200,14.991203125,-0.02307891845703125,0.007629387080669403,-0.005372513085603714
1781789746289193500,15.007193359375,-0.020685195922851562,0.010057099163532257,-0.0054212212562561035
1781789746305185300,15.023185302734374,-0.003925323486328125,-0.0019139796495437622,-0.0030267275869846344
1781789746321183200,15.039183349609376,-0.013502120971679688,-0.006651647388935089,-0.007923111319541931
1781789746337175300,15.05517529296875,-0.011109352111816406,0.0005347952246665955,-0.007825121283531189
1781789746353170400,15.07117041015625,-0.02547168731689453,0.002779074013233185,-0.010347802191972733
1781789746369162000,15.087161865234375,-0.020682334899902344,0.005183160305023193,0.0013670660555362701
1781789746385148200,15.103148193359376,-0.027864456176757812,0.002738356590270996,-0.0009197257459163666
1781789746401139000,15.119138916015626,-0.0302581787109375,0.00024053454399108887,-0.0008736662566661835
1781789746417132000,15.135132080078124,-0.015892982482910156,0.009817346930503845,-0.012844674289226532
1781789746433128700,15.151128662109375,-0.027864456176757812,0.007430523633956909,-0.0030712969601154327
1781789746449120000,15.1671201171875,-0.020679473876953125,0.00963011384010315,0.0016537420451641083
1781789746465118000,15.183117919921875,-0.027862548828125,0.0025452375411987305,-0.00792628899216652
1781789746481115400,15.199115478515624,-0.030259132385253906,0.002692863345146179,-0.012756075710058212
1781789746497106400,15.2151064453125,-0.02547168731689453,-0.004385404288768768,-0.00322684645652771
1781789746513091600,15.231091552734375,-0.02547168731689453,-0.0019553080201148987,0.003765381872653961
1781789746529083100,15.247083251953125,-0.02068042755126953,-0.002054862678050995,-0.008440915495157242
1781789746545068300,15.263068359375,-0.020681381225585938,-0.006742954254150391,-0.008586160838603973
1781789746561060000,15.27906005859375,-0.02307605743408203,0.0028823241591453552,-0.010947208851575851
1781789746577052000,15.295052001953126,-0.025470733642578125,-0.0018565058708190918,-0.0038018710911273956
1781789746593045500,15.31104541015625,-0.03983592987060547,0.0004942789673805237,-0.006202228367328644
1781789746609039600,15.32703955078125,-0.027862548828125,-0.00923515111207962,-0.013370733708143234
1781789746625030400,15.343030517578125,-0.03504467010498047,-0.009232819080352783,-0.00632954016327858
1781789746641016800,15.359016845703126,-0.03025531768798828,-0.00453716516494751,-0.008693218231201172
1781789746657007900,15.3750078125,-0.032647132873535156,0.00494992733001709,-0.004085510969161987
1781789746673002500,15.39100244140625,-0.008702278137207031,-0.012005254626274109,0.007892843335866928
1781789746688993500,15.40699365234375,-0.03503894805908203,0.007148608565330505,-0.004078768193721771
1781789746704987000,15.42298681640625,-0.03025054931640625,-0.00473225861787796,0.0005101412534713745
1781789746720978200,15.438978271484375,-0.030249595642089844,0.009541384875774384,0.0028641484677791595
1781789746736971300,15.45497119140625,-0.025461196899414062,-0.0024337172508239746,-0.004415843635797501
1781789746752964600,15.470964599609376,-0.013487815856933594,-0.004918597638607025,-0.00931454822421074
1781789746768958000,15.4869580078125,-0.03024768829345703,-0.002474553883075714,-0.006958212703466415
1781789746784949000,15.502948974609374,-0.03025054931640625,0.0024136006832122803,0.0028535686433315277
1781789746800948200,15.5189482421875,-0.025460243225097656,-0.00965941697359085,-0.013999693095684052
1781789746816945000,15.53494482421875,-0.030246734619140625,-0.00506167858839035,-0.006783038377761841
1781789746832939300,15.550939208984374,-0.030248641967773438,-0.009704895317554474,-0.006682436913251877
1781789746848937000,15.56693701171875,-0.025458335876464844,-0.007452182471752167,0.0004981309175491333
1781789746864927000,15.582927001953125,-0.0110931396484375,-0.000317990779876709,-0.0043237097561359406
1781789746880916200,15.598916259765625,-0.03264045715332031,-0.007412523031234741,-0.0019881948828697205
1781789746896909300,15.614909423828125,-0.027849197387695312,-0.005157403647899628,-0.011708736419677734
1781789746912898600,15.630898681640625,-0.027848243713378906,-0.0004608333110809326,-0.0021715275943279266
1781789746928886500,15.646886474609374,-0.027849197387695312,-0.005157403647899628,-0.014102935791015625
1781789746944876300,15.662876220703126,-0.030243873596191406,-0.007612071931362152,-0.004473328590393066
1781789746960870100,15.6788701171875,-0.030243873596191406,0.0019213855266571045,-0.006873965263366699
1781789746976856800,15.69485693359375,-0.02066516876220703,-0.010047286748886108,-0.011803783476352692
1781789746992843800,15.71084375,-0.015875816345214844,-0.007791846990585327,0.00002259388566017151
1781789747008835800,15.7268359375,-0.030241012573242188,-0.00299728661775589,-0.014386031776666641
1781789747024835600,15.742835693359375,-0.02545166015625,-0.0006488338112831116,-0.007068175822496414
1781789747040831500,15.75883154296875,-0.02784442901611328,0.006530195474624634,0.0024100318551063538
1781789747056823600,15.774823486328126,-0.030241012573242188,-0.0006025508046150208,-0.0024162307381629944
1781789747072813600,15.7908134765625,-0.03981494903564453,-0.0031479522585868835,-0.00007925555109977722
1781789747088809500,15.8068095703125,-0.02305316925048828,0.003993555903434753,-0.007409427314996719
1781789747104799200,15.82279931640625,-0.013475418090820312,-0.005741633474826813,-0.014535687863826752
1781789747120785000,15.838784912109375,-0.030233383178710938,0.006148941814899445,-0.005015231668949127
1781789747136776700,15.854776611328125,-0.018260955810546875,-0.003523707389831543,-0.005152497440576553
1781789747152762000,15.87076220703125,-0.013469696044921875,-0.0036293789744377136,0.0018383748829364777
1781789747168750300,15.886750244140625,-0.01825714111328125,-0.008509613573551178,-0.00777803361415863
1781789747184737800,15.90273779296875,-0.015860557556152344,-0.0015652477741241455,0.004123765975236893
1781789747200728000,15.91872802734375,-0.04459095001220703,-0.0039095282554626465,-0.01027960330247879
1781789747216717800,15.9347177734375,-0.032616615295410156,-0.0016109272837638855,0.0015535205602645874
1781789747232709000,15.950709228515626,-0.025435447692871094,-0.008803240954875946,-0.0008958540856838226
1781789747248691700,15.966691650390626,-0.03261566162109375,-0.013678155839443207,-0.008091673254966736
1781789747264678100,15.98267822265625,-0.011069297790527344,0.010347098112106323,-0.005783461034297943
1781789747280667000,15.9986669921875,-0.030220985412597656,0.005527704954147339,-0.008271239697933197
1781789747296655000,16.014655029296875,-0.027826309204101562,0.007971718907356262,-0.01565491035580635
1781789747312637200,16.03063720703125,-0.020643234252929688,0.0007268637418746948,-0.01584089919924736
1781789747328618500,16.046618408203123,-0.008667945861816406,-0.006698638200759888,-0.011149860918521881
1781789747344604000,16.06260400390625,0.00090789794921875,0.005333617329597473,-0.011204488575458527
1781789747360584400,16.07858447265625,-0.032607078552246094,0.0028003230690956116,-0.008954014629125595
1781789747376571000,16.09457080078125,-0.015848159790039062,0.0051945969462394714,-0.016136914491653442
1781789747392557000,16.11055712890625,-0.035002708435058594,-0.006827138364315033,-0.020817337557673454
1781789747408545000,16.126544921875,-0.02542400360107422,-0.004574000835418701,-0.0016669481992721558
1781789747424535600,16.14253564453125,-0.03739356994628906,0.0049557313323020935,0.0006227977573871613
1781789747440523800,16.158523681640624,-0.034999847412109375,-0.0070152729749679565,-0.0017714053392410278
1781789747456514300,16.174514404296875,-0.023027420043945312,-0.004627197980880737,-0.018487390130758286
1781789747472500500,16.19050048828125,-0.025422096252441406,-0.004724852740764618,-0.008907657116651535
1781789747488486100,16.206486083984377,-0.018236160278320312,-0.007214315235614777,0.0005303807556629181
1781789747504471600,16.222471435546876,-0.025417327880859375,0.002317756414413452,-0.002109695225954056
1781789747520455000,16.238454833984374,-0.027810096740722656,0.002215929329395294,-0.00938645750284195
1781789747536436500,16.2544365234375,-0.03977775573730469,-0.00275498628616333,-0.0071421414613723755
1781789747552416800,16.270416748046873,-0.03977775573730469,0.0020357370376586914,-0.012071948498487473
1781789747568401400,16.2864013671875,-0.02541065216064453,-0.007686249911785126,-0.004989944398403168
1781789747584390400,16.302390380859375,-0.018227577209472656,0.004334606230258942,-0.00023942068219184875
1781789747600373000,16.318373046875,-0.030199050903320312,0.001890912652015686,-0.00977925956249237
1781789747616355600,16.33435546875,-0.02540874481201172,0.0018386542797088623,0.0020603202283382416
1781789747632336100,16.350336181640625,-0.015831947326660156,-0.005186878144741058,-0.0006299316883087158
1781789747648316000,16.36631591796875,-0.01822662353515625,-0.005103729665279388,-0.017475616186857224
1781789747664291000,16.382291015625,-0.01593494415283203,-0.0053824856877326965,-0.005459379404783249
1781789747680276200,16.398276123046877,-0.025511741638183594,-0.00542701780796051,0.0017874948680400848
1781789747696256500,16.414256591796875,-0.030300140380859375,-0.005332857370376587,0.01126248762011528
1781789747712240600,16.43024072265625,-0.020723342895507812,0.0018942728638648987,0.0016214028000831604
1781789747728226300,16.446226318359376,-0.018326759338378906,0.001708097755908966,0.004078160971403122
1781789747744210000,16.4622099609375,-0.020722389221191406,0.0018024370074272156,0.003976013511419296
1781789747760200000,16.478199951171874,-0.013538360595703125,0.006542474031448364,0.003942299634218216
1781789747776186000,16.49418603515625,-0.02311992645263672,0.006879635155200958,0.0015433542430400848
1781789747792170000,16.510169921875,-0.04466724395751953,-0.002707161009311676,-0.0009054131805896759
1781789747808155100,16.526155029296874,-0.023118972778320312,-0.005089111626148224,0.010979026556015015
1781789747824141000,16.54214111328125,-0.025514602661132812,0.004585683345794678,0.0013983771204948425
1781789747840129500,16.558129638671875,-0.035091400146484375,-0.0026068538427352905,0.0037377402186393738
1781789747856116000,16.574115966796874,-0.02551555633544922,-0.0024593472480773926,0.013273719698190689
1781789747872102700,16.5901025390625,-0.020727157592773438,-0.00494740903377533,-0.015355754643678665
1781789747888091100,16.606091064453125,-0.02790546417236328,-0.007581308484077454,0.0058831945061683655
1781789747904077600,16.62207763671875,-0.01832866668701172,-0.005143515765666962,-0.0012935735285282135
1781789747920059400,16.638059326171874,-0.03508758544921875,0.00439608097076416,-0.0061318278312683105
1781789747936043000,16.65404296875,-0.03269195556640625,0.0067321136593818665,0.008144780993461609
1781789747952028200,16.670028076171874,-0.03269004821777344,-0.010075762867927551,-0.0017764344811439514
1781789747968012000,16.686011962890625,-0.02071857452392578,-0.0006365403532981873,0.0007134266197681427
1781789747983999500,16.70199951171875,-0.023111343383789062,0.006542287766933441,-0.004173245280981064
1781789747999979000,16.71797900390625,-0.030292510986328125,-0.0031697750091552734,0.005357813090085983
1781789748015963000,16.733962890625,-0.020714759826660156,-0.0032279938459396362,0.00048109889030456543
1781789748031950000,16.7499501953125,-0.032685279846191406,0.011097632348537445,-0.0018212683498859406
1781789748047933200,16.76593310546875,-0.03268241882324219,0.0013149082660675049,-0.00905105471611023
1781789748063914500,16.78191455078125,-0.01352691650390625,-0.0012143626809120178,-0.006702922284603119
1781789748079886000,16.797885986328126,-0.03507423400878906,-0.0012513324618339539,0.0028234347701072693
1781789748095868000,16.813867919921876,-0.01592254638671875,0.0012410879135131836,-0.004363592714071274
1781789748111851300,16.829851318359374,-0.027892112731933594,-0.0011235028505325317,-0.0045100003480911255
1781789748127835100,16.845835205078124,-0.030284881591796875,-0.003617197275161743,0.007225438952445984
1781789748143821600,16.861821533203123,-0.032677650451660156,-0.0011675581336021423,0.0020463690161705017
1781789748159807200,16.87780712890625,-0.020708084106445312,0.006125189363956451,0.001955728977918625
1781789748175788500,16.89378857421875,-0.01831340789794922,0.0013332217931747437,-0.007719662040472031
1781789748191767800,16.909767822265625,-0.032677650451660156,-0.0034091994166374207,0.0017212890088558197
1781789748207752400,16.92575244140625,-0.020707130432128906,0.0037697702646255493,-0.0007712133228778839
1781789748223735800,16.94173583984375,-0.01831340789794922,0.006218641996383667,-0.00317595899105072
1781789748239718400,16.957718505859376,-0.018314361572265625,0.006299272179603577,-0.005514152348041534
1781789748255700200,16.9737001953125,-0.025498390197753906,-0.0007283762097358704,0.003907151520252228
1781789748271678200,16.98967822265625,-0.023102760314941406,-0.0032143518328666687,0.0014730766415596008
1781789748287655200,17.0056552734375,-0.03986167907714844,-0.008067108690738678,-0.005754426121711731
1781789748303634200,17.02163427734375,-0.02788829803466797,-0.005707606673240662,-0.0035518035292625427
1781789748319615700,17.03761572265625,-0.03746223449707031,-0.0011078640818595886,-0.001264076679944992
1781789748335591000,17.0535908203125,-0.03507041931152344,-0.0034644976258277893,0.005967229604721069
1781789748351571500,17.069571533203124,-0.030282020568847656,-0.0010131001472473145,0.0034207478165626526
1781789748367551700,17.0855517578125,-0.015915870666503906,0.0014207735657691956,0.01051124557852745
1781789748383529700,17.10152978515625,-0.035068511962890625,0.013300180435180664,0.008076850324869156
1781789748399508700,17.1175087890625,-0.02070331573486328,0.001333184540271759,-0.01337328553199768
1781789748415490000,17.133489990234374,-0.030280113220214844,0.008518114686012268,-0.001543685793876648
1781789748431468500,17.149468505859375,-0.02070140838623047,0.01315927505493164,0.005679130554199219
1781789748447442400,17.1654423828125,-0.015913009643554688,0.0012328475713729858,-0.0015680156648159027
1781789748463419000,17.1814189453125,-0.01830768585205078,0.0037160292267799377,0.0006973929703235626
1781789748479394800,17.197394775390624,-0.020700454711914062,-0.001246720552444458,-0.00644032284617424
1781789748495365600,17.21336572265625,-0.018304824829101562,-0.0012527182698249817,-0.006491631269454956
1781789748511341300,17.22934130859375,-0.030275344848632812,-0.001348145306110382,0.002947002649307251
1781789748527319300,17.2453193359375,-0.027879714965820312,-0.006146542727947235,0.007680837064981461
1781789748543297500,17.261297607421874,-0.02309131622314453,0.005887806415557861,-0.0020916685461997986
1781789748559273000,17.27727294921875,-0.04224395751953125,-0.00843549519777298,0.00485769659280777
1781789748575245000,17.2932451171875,-0.03506278991699219,0.00602007657289505,-0.00013080984354019165
1781789748591217000,17.309216796875,-0.0302734375,-0.005994021892547607,-0.0049262382090091705
1781789748607190800,17.325190673828125,-0.025483131408691406,0.0034474506974220276,-0.004971694201231003
1781789748623166700,17.341166748046874,-0.02069091796875,0.003243863582611084,-0.017131296917796135
1781789748639138600,17.357138671875,-0.03505706787109375,0.010430745780467987,-0.009851612150669098
1781789748655113500,17.373113525390625,-0.03505516052246094,0.0007126480340957642,0.009299121797084808
1781789748671091000,17.389091064453126,-0.025478363037109375,0.007941178977489471,-0.005201663821935654
1781789748687067400,17.4050673828125,-0.020689010620117188,0.00785490870475769,-0.010003846138715744
1781789748703046700,17.421046630859376,-0.030266761779785156,-0.013649478554725647,-0.002815093845129013
1781789748719028500,17.437028564453126,-0.030266761779785156,0.0008058547973632812,0.0017738193273544312
1781789748735007500,17.453007568359375,-0.032657623291015625,0.012647762894630432,-0.005497947335243225
1781789748750987000,17.468987060546876,-0.030264854431152344,0.00784679502248764,-0.0006221048533916473
1781789748766965800,17.4849658203125,-0.023080825805664062,0.010189011693000793,0.004034277051687241
1781789748782946000,17.500946044921875,-0.02547740936279297,0.005602732300758362,0.0015889815986156464
1781789748798919200,17.516919189453127,-0.030264854431152344,-0.004027284681797028,-0.005654662847518921
1781789748814891800,17.532891845703126,-0.01829242706298828,0.005495078861713409,-0.0032510384917259216
1781789748830867500,17.548867431640623,-0.025475502014160156,0.005452096462249756,-0.012834902852773666
1781789748846844200,17.56484423828125,-0.02547454833984375,0.0006327107548713684,-0.010534271597862244
1781789748862816800,17.580816650390624,-0.03983783721923828,-0.006551206111907959,-0.008379779756069183
1781789748878792000,17.5967919921875,-0.025468826293945312,0.0028217583894729614,-0.006173588335514069
1781789748894767400,17.612767333984376,-0.025467872619628906,0.002726346254348755,-0.0015233643352985382
1781789748910739000,17.628739013671876,-0.02067852020263672,-0.011731594800949097,-0.0038870424032211304
1781789748926709200,17.644709228515627,-0.02785968780517578,-0.014073647558689117,-0.0064605288207530975
1781789748942678300,17.66067822265625,-0.027861595153808594,0.007505282759666443,-0.006367530673742294
1781789748958652700,17.676652587890626,-0.03264808654785156,0.005030535161495209,0.0007587708532810211
1781789748974626000,17.6926259765625,-0.02785968780517578,-0.006890706717967987,-0.004067212343215942
1781789748990597000,17.70859716796875,-0.025467872619628906,0.0003230050206184387,-0.006368421018123627
1781789749006571000,17.724571044921873,-0.02785968780517578,-0.002202548086643219,-0.008710656315088272
1781789749022550800,17.74055078125,-0.035042762756347656,0.005024895071983337,-0.006381608545780182
1781789749038527200,17.75652734375,-0.015888214111328125,0.009867601096630096,0.0052690282464027405
1781789749054495200,17.7724951171875,-0.025465011596679688,0.00010791420936584473,0.0007106289267539978
1781789749070464000,17.788464111328125,-0.04222297668457031,0.0001373291015625,-0.0066180601716041565
1781789749086433800,17.804433837890624,-0.03264427185058594,-0.007186435163021088,-0.0066209882497787476
1781789749102403000,17.820403076171875,-0.027855873107910156,0.00004575401544570923,0.0005243495106697083
1781789749118374000,17.836373779296874,-0.042220115661621094,-0.002399459481239319,-0.011649079620838165
1781789749134352400,17.852352294921875,-0.03743171691894531,-0.007217474281787872,-0.0019258707761764526
1781789749150329900,17.868329833984376,-0.03982734680175781,-0.00000356137752532959,-0.0018331892788410187
1781789749166309400,17.884309326171874,-0.037430763244628906,-0.004885055124759674,0.0002814196050167084
1781789749182291500,17.90029150390625,-0.01588153839111328,-0.004932492971420288,-0.007005017250776291
1781789749198271500,17.916271484375,-0.03503704071044922,-0.0023907721042633057,0.002530984580516815
1781789749214247400,17.932247314453125,-0.03503608703613281,0.0023035258054733276,-0.004550091922283173
1781789749230231000,17.94823095703125,-0.03024768829345703,-0.0001399889588356018,-0.006907626986503601
1781789749246208500,17.96420849609375,-0.02306365966796875,0.0021562203764915466,0.0026730000972747803
1781789749262183200,17.98018310546875,-0.027853965759277344,-0.00004582852125167847,-0.011797849088907242
1781789749278164000,17.9961640625,-0.023065567016601562,-0.004827752709388733,0.0001288577914237976
1781789749294143200,18.012143310546875,-0.03503704071044922,-0.007221683859825134,-0.00466015562415123
1781789749318102300,18.036102294921875,-0.027853012084960938,-0.004791386425495148,-0.01442766934633255
1781789749334073600,18.052073486328126,-0.008697509765625,-0.00013440102338790894,0.0023839809000492096
1781789749350051000,18.068051025390623,-0.020669937133789062,0.009531021118164062,-0.012041106820106506
1781789749366030300,18.0840302734375,-0.03264141082763672,-0.0023337826132774353,0.002136044204235077
1781789749382008800,18.1000087890625,0.02960968017578125,-0.007519468665122986,0.00042046234011650085
1781789749397992700,18.11599267578125,-0.05897045135498047,0.008093185722827911,-0.009648442268371582
1781789749413975600,18.1319755859375,-0.018268585205078125,0.0005304515361785889,-0.0063242800533771515
1781789749429955300,18.147955322265624,0.000888824462890625,-0.00525539368391037,-0.004224468022584915
1781789749445929000,18.163928955078124,-0.06374931335449219,0.005465403199195862,-0.00675501674413681
1781789749461901000,18.179901123046875,-0.08530235290527344,0.0021108686923980713,-0.009555980563163757
1781789749477873400,18.195873291015626,0.02960681915283203,-0.004399605095386505,-0.0007949322462081909
1781789749493843000,18.211843017578126,-0.011092185974121094,0.002307318150997162,0.0044750310480594635
1781789749509817600,18.227817626953126,-0.07094478607177734,0.0044068992137908936,-0.016680482774972916
1781789749525784800,18.243784912109376,-0.01588153839111328,-0.006838351488113403,0.0013525448739528656
1781789749541755100,18.259755126953124,-0.04460906982421875,0.007185302674770355,-0.0031485892832279205
1781789749557728800,18.275728759765624,-0.035030364990234375,0.0071390047669410706,-0.010505720973014832
1781789749573706800,18.291706787109376,-0.027846336364746094,-0.00008825957775115967,-0.008357670158147812
1781789749589681700,18.307681640625,-0.03981590270996094,-0.005020469427108765,0.0013585090637207031
1781789749605657000,18.323656982421873,-0.032631874084472656,-0.01229875534772873,-0.005961667746305466
1781789749621633000,18.339633056640626,-0.027841567993164062,0.0020254477858543396,0.0010732151567935944
1781789749637609500,18.355609375,-0.03502655029296875,0.011696621775627136,-0.013394128531217575
1781789749653584600,18.371584716796875,-0.020661354064941406,-0.0001699402928352356,-0.02062501572072506
1781789749669561900,18.387561767578124,-0.01587390899658203,0.009446494281291962,-0.008745715022087097
1781789749685534000,18.403533935546875,-0.027843475341796875,-0.004922561347484589,-0.00884370505809784
1781789749701507600,18.419507568359375,-0.011087417602539062,-0.009465605020523071,-0.00888831913471222
1781789749717477400,18.435477294921874,-0.0278472900390625,0.007340975105762482,-0.01117810606956482
1781789749733452000,18.4514521484375,-0.020667076110839844,0.009827099740505219,-0.003956194967031479
1781789749749426700,18.4674267578125,-0.03503131866455078,0.005078203976154327,0.0031348541378974915
1781789749765397200,18.483397216796874,0.010456085205078125,-0.002146787941455841,0.0037479065358638763
1781789749781365800,18.49936572265625,0.0008897781372070312,-0.019482113420963287,-0.002576485276222229
1781789749797331500,18.51533154296875,-0.049370765686035156,-0.0014234930276870728,-0.0033259689807891846
1781789749813305000,18.53130517578125,-0.09724617004394531,-0.0001261979341506958,-0.02061532437801361
1781789749829281800,18.54728173828125,-0.013446807861328125,0.006990149617195129,0.010226387530565262
1781789749845258200,18.56325830078125,-0.06373405456542969,-0.008611902594566345,0.0035208091139793396
1781789749861237000,18.579237060546873,-0.037410736083984375,-0.011240117251873016,-0.002553902566432953
1781789749877214500,18.59521435546875,-0.015871047973632812,0.004986375570297241,-0.0037630945444107056
1781789749893192400,18.6111923828125,-0.03024005889892578,-0.005879826843738556,0.00120491161942482
1781789749909166600,18.62716650390625,-0.020664215087890625,-0.0008105561137199402,-0.0065844058990478516
1781789749925136100,18.64313623046875,-0.03742218017578125,0.006428547203540802,-0.004479493945837021
1781789749941101800,18.659101806640624,-0.020662307739257812,-0.0006165727972984314,-0.009706825017929077
1781789749957071000,18.675071044921875,-0.01826953887939453,0.0020782575011253357,-0.0006510131061077118
1781789749973037300,18.691037353515625,-0.0493927001953125,0.0044647082686424255,0.01112714409828186
1781789749989010200,18.70701025390625,-0.025450706481933594,0.002210386097431183,-0.0011798441410064697
1781789750004984300,18.722984375,-0.02545166015625,0.007156789302825928,-0.008607219904661179
1781789750020956400,18.738956298828125,-0.030239105224609375,-0.0024816766381263733,-0.013498164713382721
1781789750036929500,18.754929443359377,-0.025450706481933594,-0.009570404887199402,-0.0016626566648483276
1781789750052903200,18.770903076171876,-0.04221057891845703,0.00010826438665390015,-0.004256881773471832
1781789750068877300,18.786877197265625,-0.020664215087890625,0.005082286894321442,-0.009417962282896042
1781789750084854800,18.802854736328126,-0.03502941131591797,0.000728607177734375,-0.0007063448429107666
1781789750100833000,18.8188330078125,-0.020666122436523438,-0.008418351411819458,-0.013451464474201202
