time,seconds_elapsed,z,y,x
1781801335496902700,0.070902587890625,-0.013667106628417969,-0.00011102110147476196,-0.00009624660015106201
1781801335512916700,0.086916748046875,-0.03760242462158203,0.0008439421653747559,-0.0018206015229225159
1781801335528932600,0.1029326171875,-0.04238319396972656,-0.0005863755941390991,-0.001151055097579956
1781801335544947200,0.118947265625,-0.020829200744628906,-0.0020334944128990173,-0.01006440818309784
1781801335560956700,0.134956787109375,-0.011242866516113281,0.0037220939993858337,-0.009393863379955292
1781801335576969500,0.150969482421875,-0.047183990478515625,0.0008660927414894104,-0.001367911696434021
1781801335592974800,0.166974853515625,-0.035205841064453125,-0.00774797797203064,-0.005480282008647919
1781801335608982800,0.182982666015625,-0.15011310577392578,0.012705005705356598,-0.020184986293315887
1781801335624988400,0.198988525390625,-0.1358633041381836,-0.017762884497642517,-0.05258122831583023
1781801335640993300,0.2149931640625,-0.011262893676757812,0.008947387337684631,-0.0019858628511428833
1781801335656995800,0.230995849609375,0.07735347747802734,-0.015232928097248077,0.038752928376197815
1781801335673000400,0.24700048828125,-0.05911827087402344,0.0013917014002799988,-0.004051864147186279
1781801335688999700,0.262999755859375,-0.0423583984375,0.0038768723607063293,0.0030457153916358948
1781801335704997600,0.27899755859375,-0.016019821166992188,-0.0005815476179122925,-0.004672355949878693
1781801335720997600,0.29499755859375,-0.032776832580566406,0.0018659532070159912,0.009457021951675415
1781801335736997600,0.31099755859375,-0.03995800018310547,-0.005179144442081451,-0.0003603026270866394
1781801335752998000,0.326997802734375,-0.04474639892578125,-0.00019318610429763794,-0.00295209139585495
1781801335769005300,0.34300537109375,-0.03277397155761719,0.004874177277088165,0.0016020387411117554
1781801335785012700,0.3590126953125,-0.03516578674316406,0.0024911165237426758,0.0036483705043792725
1781801335801023000,0.37502294921875,-0.023193359375,0.0050229281187057495,0.005851909518241882
1781801335817026000,0.391026123046875,-0.023192405700683594,-0.014118432998657227,0.015332773327827454
1781801335833032400,0.407032470703125,-0.03037261962890625,0.005034990608692169,0.010306194424629211
1781801335849041200,0.423041259765625,-0.032764434814453125,-0.004317417740821838,0.017158813774585724
1781801335865047800,0.4390478515625,-0.032764434814453125,0.005314193665981293,0.0074888914823532104
1781801335881053700,0.4550537109375,-0.04712963104248047,-0.00645872950553894,0.0025972574949264526
1781801335897056500,0.471056396484375,-0.027975082397460938,-0.008801713585853577,0.007188849151134491
1781801335913064400,0.487064453125,-0.03515625,0.0009736567735671997,0.002117663621902466
1781801335929076000,0.503075927734375,-0.03754997253417969,0.0035013630986213684,0.0020118728280067444
1781801335945086700,0.519086669921875,-0.04473114013671875,-0.0012357383966445923,0.006704255938529968
1781801335961097700,0.53509765625,-0.023180007934570312,-0.006015166640281677,0.0015927106142044067
1781801335977115400,0.551115478515625,-0.03515052795410156,-0.0035296455025672913,0.0014499053359031677
1781801335993136000,0.56713623046875,-0.02557373046875,0.003748364746570587,-0.0010898634791374207
1781801336009157400,0.583157470703125,-0.013606071472167969,-0.00567946583032608,-0.0055456385016441345
1781801336025173500,0.599173583984375,-0.032756805419921875,0.013416774570941925,-0.010579802095890045
1781801336041194200,0.6151943359375,-0.03036212921142578,0.003936082124710083,-0.00118979811668396
1781801336057204500,0.63120458984375,-0.025575637817382812,0.0016893893480300903,0.0060402825474739075
1781801336073220900,0.647220947265625,-0.008813858032226562,-0.0006617605686187744,0.01307147741317749
1781801336089234400,0.663234375,-0.04472827911376953,-0.000508330762386322,0.00345640629529953
1781801336105243600,0.67924365234375,-0.03275775909423828,0.004327751696109772,0.003549531102180481
1781801336121257200,0.69525732421875,-0.03275871276855469,0.0021280422806739807,0.0034403279423713684
1781801336137272000,0.71127197265625,-0.02557373046875,0.004433251917362213,0.00564584881067276
1781801336153282300,0.7272822265625,-0.020784378051757812,0.0020769238471984863,0.005513183772563934
1781801336169286700,0.74328662109375,-0.03275299072265625,0.002226725220680237,0.0076642632484436035
1781801336185295400,0.75929541015625,-0.047119140625,-0.00494636595249176,0.012494869530200958
1781801336201303000,0.775302978515625,-0.013600349426269531,-0.0002643093466758728,0.0030095428228378296
1781801336217313500,0.7913134765625,-0.027963638305664062,0.011706061661243439,0.005260959267616272
1781801336233324000,0.807323974609375,-0.027963638305664062,-0.007392622530460358,0.002819851040840149
1781801336249339600,0.823339599609375,-0.027963638305664062,0.007015906274318695,-0.004371128976345062
1781801336265352700,0.839352783203125,-0.018385887145996094,0.0023188218474388123,0.00023867934942245483
1781801336281362700,0.85536279296875,-0.015993118286132812,0.004730314016342163,0.005112752318382263
1781801336297376800,0.871376708984375,-0.030358314514160156,-0.002266325056552887,0.0073547884821891785
1781801336313396000,0.88739599609375,-0.03753948211669922,0.005015134811401367,0.00003732740879058838
1781801336329414000,0.903413818359375,-0.018385887145996094,0.0024709999561309814,-0.009439520537853241
1781801336345430300,0.91943017578125,-0.03753852844238281,-0.002317287027835846,-0.000005982816219329834
1781801336361444000,0.935444091796875,-0.032749176025390625,-0.0022096633911132812,-0.002492345869541168
1781801336377453000,0.951453125,-0.023172378540039062,-0.0021743550896644592,-0.00014987587928771973
1781801336393467100,0.967467041015625,-0.037537574768066406,-0.004282847046852112,0.006888240575790405
1781801336409483800,0.98348388671875,-0.023171424865722656,-0.004167839884757996,0.006696462631225586
1781801336425497900,0.999497802734375,-0.035141944885253906,-0.001677006483078003,0.004104785621166229
1781801336441507800,1.0155078125,-0.027957916259765625,0.0007601603865623474,0.013530336320400238
1781801336457512700,1.0315126953125,-0.025564193725585938,-0.0038392841815948486,0.015834353864192963
1781801336481526800,1.05552685546875,-0.018383026123046875,-0.013414718210697174,0.004005648195743561
1781801336505546200,1.079546142578125,-0.004014015197753906,0.0057389140129089355,0.008507639169692993
1781801336521567200,1.095567138671875,-0.0303497314453125,-0.0015320181846618652,0.0012791380286216736
1781801336537585700,1.111585693359375,-0.032741546630859375,0.0007701292634010315,0.0011717677116394043
1781801336553598200,1.12759814453125,-0.03273963928222656,-0.006367407739162445,0.0033339858055114746
1781801336569614300,1.1436142578125,-0.018372535705566406,0.00560297816991806,-0.008779816329479218
1781801336585625900,1.1596259765625,-0.03752422332763672,0.007993869483470917,-0.0041964128613471985
1781801336601642200,1.175642333984375,-0.015974998474121094,-0.006468713283538818,-0.004284895956516266
1781801336617660700,1.19166064453125,-0.011186599731445312,-0.001526661217212677,-0.0043233707547187805
1781801336633676800,1.2076767578125,-0.023156166076660156,0.010536439716815948,-0.004485107958316803
1781801336649697300,1.223697265625,-0.023156166076660156,-0.0013780593872070312,0.00017606467008590698
1781801336665715000,1.23971484375,-0.020765304565429688,0.010833628475666046,0.00026351213455200195
1781801336681726700,1.255726806640625,-0.023157119750976562,-0.005971044301986694,0.007391974329948425
1781801336697742000,1.2717421875,-0.023157119750976562,0.0036067813634872437,-0.006973817944526672
1781801336713760500,1.287760498046875,-0.03273582458496094,0.013080477714538574,0.009938761591911316
1781801336729778400,1.3037783203125,-0.032731056213378906,0.0008777230978012085,-0.011797085404396057
1781801336745797400,1.31979736328125,-0.03991508483886719,0.005709797143936157,0.009742163121700287
1781801336761811700,1.335811767578125,-0.008788108825683594,-0.003958575427532196,0.004846014082431793
1781801336777827300,1.351827392578125,-0.037517547607421875,0.005567915737628937,-0.004766158759593964
1781801336793842700,1.3678427734375,-0.032726287841796875,-0.0017036497592926025,-0.004954829812049866
1781801336809854500,1.3838544921875,-0.003994941711425781,0.007958680391311646,-0.002719968557357788
1781801336825869800,1.399869873046875,-0.03272533416748047,0.010364003479480743,-0.0027581006288528442
1781801336841888300,1.41588818359375,-0.011178016662597656,0.005664847791194916,-0.010038554668426514
1781801336857905000,1.43190478515625,-0.02554035186767578,0.015257388353347778,-0.01263245940208435
1781801336873913300,1.447913330078125,-0.011173248291015625,-0.0015987902879714966,-0.010327041149139404
1781801336889926400,1.463926513671875,-0.0015954971313476562,0.0031891614198684692,-0.0056815966963768005
1781801336905934600,1.4799345703125,-0.018354415893554688,-0.003942728042602539,-0.0010011717677116394
1781801336921943800,1.49594384765625,-0.027929306030273438,0.003239855170249939,-0.008326858282089233
1781801336937949700,1.51194970703125,-0.020745277404785156,-0.0017426759004592896,0.0012157559394836426
1781801336953962200,1.527962158203125,-0.05426025390625,0.005197346210479736,-0.0013286322355270386
1781801336969974800,1.543974853515625,-0.037499427795410156,0.005144082009792328,-0.003820165991783142
1781801336985980200,1.559980224609375,-0.030317306518554688,-0.0019760578870773315,0.008147507905960083
1781801337001987800,1.57598779296875,-0.011164665222167969,-0.004327178001403809,-0.006225980818271637
1781801337017989600,1.59198974609375,-0.008769989013671875,0.0052525922656059265,-0.0013756155967712402
1781801337033990000,1.607989990234375,-0.02313232421875,-0.013902261853218079,0.007915616035461426
1781801337049996000,1.62399609375,-0.01594829559326172,0.0027576014399528503,0.0029762983322143555
1781801337065998000,1.639998046875,-0.008764266967773438,-0.004612423479557037,-0.0041170865297317505
1781801337082001000,1.6560009765625,-0.006369590759277344,-0.00696120411157608,0.005370631814002991
1781801337098012200,1.67201220703125,-0.0159454345703125,0.0050631314516067505,-0.011577703058719635
1781801337114021400,1.688021484375,-0.011155128479003906,-0.00465567409992218,-0.006789170205593109
1781801337130028000,1.704028076171875,-0.020730972290039062,0.0024709776043891907,-0.004554525017738342
1781801337146042000,1.7200419921875,0.0008172988891601562,-0.004700742661952972,0.0025902166962623596
1781801337162055200,1.73605517578125,-0.02791118621826172,0.0047684237360954285,-0.0046433210372924805
1781801337178065700,1.752065673828125,-0.030303001403808594,-0.00006633996963500977,0.0047369301319122314
1781801337194076200,1.768076171875,-0.027907371520996094,-0.0048900023102760315,-0.0025373101234436035
1781801337210082300,1.784082275390625,-0.0183258056640625,0.006826974451541901,-0.0027751773595809937
1781801337226085400,1.80008544921875,-0.020719528198242188,-0.00518953800201416,-0.0052234455943107605
1781801337242097200,1.81609716796875,-0.008747100830078125,0.009033404290676117,0.01153622567653656
1781801337258102500,1.8321025390625,-0.013535499572753906,-0.0029370710253715515,-0.0004349946975708008
1781801337274108700,1.848108642578125,-0.03029346466064453,0.004202879965305328,0.006612330675125122
1781801337290113800,1.86411376953125,-0.02071666717529297,0.0017741620540618896,0.001875162124633789
1781801337306118000,1.880117919921875,-0.011139869689941406,-0.005418896675109863,0.00895226001739502
1781801337322118700,1.89611865234375,-0.013532638549804688,0.001729428768157959,0.006609007716178894
1781801337338121500,1.91212158203125,-0.02550220489501953,-0.005561172962188721,-0.0007673874497413635
1781801337354121200,1.928121337890625,-0.027892112731933594,0.008765459060668945,-0.010640650987625122
1781801337370123500,1.94412353515625,-0.023102760314941406,-0.00570397824048996,-0.0058415234088897705
1781801337386129000,1.96012890625,-0.023100852966308594,-0.000996232032775879,-0.015563927590847015
1781801337402134300,1.97613427734375,-0.0254974365234375,0.001399114727973938,0.0013378560543060303
1781801337418140200,1.99214013671875,-0.011129379272460938,-0.0011400356888771057,0.0012760460376739502
1781801337434153200,2.0081533203125,-0.013524055480957031,-0.0035761594772338867,-0.017869971692562103
1781801337450156800,2.02415673828125,-0.025496482849121094,0.01565907895565033,0.0036796778440475464
1781801337466157600,2.040157470703125,-0.013524055480957031,0.010790109634399414,-0.0011111646890640259
1781801337482148000,2.056148193359375,-0.013523101806640625,0.0035083219408988953,-0.0035134106874465942
1781801337498145500,2.0721455078125,-0.013521194458007812,0.0011674463748931885,-0.003702320158481598
1781801337514143000,2.08814306640625,-0.008730888366699219,-0.005970358848571777,-0.0015400052070617676
1781801337530141700,2.1041416015625,-0.023095130920410156,0.0035155341029167175,0.000889219343662262
1781801337546138400,2.120138427734375,-0.02788257598876953,-0.008741036057472229,0.003284670412540436
1781801337562134800,2.136134765625,-0.02309417724609375,0.003268003463745117,-0.0038874372839927673
1781801337578135300,2.15213525390625,-0.02548694610595703,0.010316260159015656,0.007983982563018799
1781801337594138000,2.16813818359375,-0.02309131622314453,-0.0017004162073135376,-0.0016467049717903137
1781801337610135600,2.184135498046875,-0.027876853942871094,-0.004103325307369232,-0.006621159613132477
1781801337626137000,2.20013720703125,-0.013507843017578125,0.003086492419242859,-0.004612728953361511
1781801337642140000,2.216139892578125,-0.013504981994628906,0.000593036413192749,-0.007157966494560242
1781801337658139000,2.232138916015625,-0.0015344619750976562,-0.006500273942947388,-0.002467423677444458
1781801337674141700,2.2481416015625,-0.008715629577636719,-0.001558735966682434,-0.0050429776310920715
1781801337690150100,2.264150146484375,-0.0087127685546875,-0.006447017192840576,-0.0027995258569717407
1781801337706158600,2.28015869140625,-0.025472640991210938,0.007919356226921082,-0.005194418132305145
1781801337722165500,2.29616552734375,-0.018286705017089844,0.0006443709135055542,-0.015004456043243408
1781801337738165500,2.31216552734375,-0.011103630065917969,-0.0017527937889099121,-0.015066400170326233
1781801337754167800,2.328167724609375,-0.03025531768798828,0.000501491129398346,-0.005570180714130402
1781801337770172400,2.34417236328125,-0.02785968780517578,-0.01147167757153511,-0.0032384246587753296
1781801337786179800,2.360179931640625,-0.03504180908203125,0.005252853035926819,-0.0009360611438751221
1781801337802185200,2.376185302734375,-0.032645225524902344,-0.002126842737197876,0.0037562325596809387
1781801337818184400,2.392184326171875,-0.027855873107910156,-0.002029016613960266,-0.0034812837839126587
1781801337834184000,2.408183837890625,-0.018279075622558594,0.00036572664976119995,-0.010664284229278564
1781801337850182400,2.424182373046875,-0.02306842803955078,0.0004733428359031677,-0.005968056619167328
1781801337866183200,2.44018310546875,-0.020673751831054688,-0.0019737184047698975,-0.0059225186705589294
1781801337882184400,2.456184326171875,-0.008698463439941406,-0.002108663320541382,-0.006164878606796265
1781801337898185000,2.47218505859375,-0.025457382202148438,-0.007090665400028229,-0.018170468509197235
1781801337914188500,2.4881884765625,-0.01587963104248047,0.00014293193817138672,-0.0039133355021476746
1781801337930188800,2.504188720703125,-0.05179119110107422,0.00022285431623458862,0.0007347315549850464
1781801337946189600,2.520189453125,0.027220726013183594,-0.002405919134616852,0.005416296422481537
1781801337962189600,2.536189453125,-0.0278472900390625,-0.002606511116027832,-0.003952585160732269
1781801337978193400,2.552193359375,-0.015875816345214844,-0.005046926438808441,-0.011188678443431854
1781801337994204000,2.568203857421875,-0.03024005889892578,0.011728852987289429,-0.013639815151691437
1781801338010207500,2.58420751953125,-0.046998023986816406,0.004580505192279816,-0.00890236347913742
1781801338026210800,2.6002109375,-0.059098243713378906,-0.008706122636795044,-0.00019741058349609375
1781801338042211000,2.616211181640625,-0.009097099304199219,0.06404637545347214,-0.2311801165342331
1781801338058212400,2.63221240234375,0.02593994140625,0.4181191027164459,-5.329065799713135
1781801338074216200,2.64821630859375,0.525029182434082,0.3450133502483368,-2.3787591457366943
1781801338090217200,2.66421728515625,0.8026227951049805,0.5509181022644043,8.291121482849121
1781801338106212600,2.680212646484375,0.19552040100097656,-1.1649863719940186,1.6603246927261353
1781801338122210000,2.6962099609375,1.9830856323242188,0.3536869287490845,-1.715843677520752
1781801338138207700,2.712207763671875,3.4772748947143555,-0.37706583738327026,-0.08010485768318176
1781801338154205400,2.728205322265625,2.1188440322875977,0.1934315264225006,0.42745357751846313
1781801338170213000,2.744213134765625,1.2859039306640625,0.5329110622406006,-0.9601920247077942
1781801338186219300,2.76021923828125,3.443758010864258,-1.0073447227478027,-3.7151927947998047
1781801338202225700,2.7762255859375,6.214742660522461,1.0065549612045288,-0.9680505394935608
1781801338218229800,2.792229736328125,6.423724174499512,2.608954906463623,0.4235479235649109
1781801338234232800,2.80823291015625,6.9650163650512695,2.855605125427246,1.096231460571289
1781801338250234600,2.824234619140625,10.088152885437012,1.2381778955459595,2.1326804161071777
1781801338266239500,2.840239501953125,6.101284980773926,-0.3772619962692261,2.8268516063690186
1781801338282247200,2.8562470703125,2.6599130630493164,2.6160669326782227,-0.4950348138809204
1781801338298251300,2.872251220703125,5.434684753417969,2.3589367866516113,0.6535953283309937
1781801338314251000,2.8882509765625,2.9483442306518555,-3.5927915573120117,0.24268221855163574
1781801338330251500,2.90425146484375,-1.8580026626586914,-3.708662509918213,-1.0667861700057983
1781801338346252300,2.920252197265625,-1.0748648643493652,-4.819831848144531,2.3535263538360596
1781801338362253300,2.93625341796875,-0.15992259979248047,-4.730232238769531,3.064544200897217
1781801338378253600,2.952253662109375,0.4999251365661621,-6.907235145568848,7.150301933288574
1781801338394258200,2.968258056640625,-0.49981689453125,-9.17345905303955,17.024337768554688
1781801338410260000,2.984260009765625,-2.3121724128723145,-7.480062484741211,9.824580192565918
1781801338426258200,3.000258056640625,0.8345212936401367,-4.893546104431152,5.74228572845459
1781801338442253800,3.01625390625,3.2636682987213135,-6.867566108703613,5.861142158508301
1781801338458244900,3.032244873046875,1.81356680393219,-6.258741855621338,3.2998266220092773
1781801338474242600,3.04824267578125,0.11009615659713745,-2.811704635620117,-1.171285629272461
1781801338490237200,3.0642373046875,-1.197992205619812,-0.2860546112060547,-7.282057762145996
1781801338506237400,3.080237548828125,-1.676482915878296,1.173785924911499,-11.351523399353027
1781801338522241800,3.09624169921875,-2.156113624572754,1.3015937805175781,-18.203214645385742
1781801338538244400,3.112244384765625,-0.4230833947658539,-0.9311373233795166,-21.333646774291992
1781801338554244600,3.12824462890625,-0.02852320671081543,-8.039024353027344,-23.202098846435547
1781801338570242800,3.144242919921875,-1.6957449913024902,-14.843893051147461,-20.073463439941406
1781801338586237400,3.160237548828125,-8.536063194274902,-22.585437774658203,-14.960330963134766
1781801338602233600,3.176233642578125,-16.012775421142578,-26.375141143798828,-11.458460807800293
1781801338618227000,3.19222705078125,-23.259777069091797,-23.30996322631836,-10.290005683898926
1781801338634227500,3.2082275390625,-24.62303924560547,-18.160221099853516,-9.084774017333984
1781801338650222000,3.22422216796875,-22.027904510498047,-11.311440467834473,-3.3344011306762695
1781801338666220500,3.240220458984375,-18.919668197631836,-2.9945852756500244,-0.7998857498168945
1781801338682224000,3.25622412109375,-13.253401756286621,0.19203531742095947,5.57447624206543
1781801338698230500,3.27223046875,-7.771902084350586,2.836857318878174,11.105367660522461
1781801338714232000,3.288232177734375,-3.4013113975524902,4.566094398498535,14.648560523986816
1781801338730226700,3.304226806640625,-4.581573009490967,5.351712703704834,18.90579605102539
1781801338746221000,3.320220947265625,-1.2209019660949707,12.709391593933105,9.725672721862793
1781801338762219000,3.336218994140625,4.5206990242004395,11.10135555267334,6.023360252380371
1781801338778218800,3.35221875,9.13967514038086,-0.4304215908050537,7.046582221984863
1781801338794216200,3.36821630859375,6.455589294433594,-9.180534362792969,11.617234230041504
1781801338810216400,3.384216552734375,-0.3717430830001831,-17.329906463623047,15.689470291137695
1781801338826218000,3.400218017578125,-6.272843360900879,-26.75565528869629,16.696369171142578
1781801338850216400,3.424216552734375,-15.190807342529297,-38.64938735961914,-0.5525200366973877
1781801338866217700,3.4402177734375,-17.817995071411133,-37.036705017089844,-4.42164421081543
1781801338882221600,3.4562216796875,-25.659770965576172,-26.411598205566406,-14.632871627807617
1781801338898225700,3.4722255859375,-25.352853775024414,-17.03228759765625,-23.998754501342773
1781801338914228700,3.488228759765625,-17.633220672607422,-13.705509185791016,-26.179779052734375
1781801338930230300,3.504230224609375,-13.940353393554688,-16.61213493347168,-21.025815963745117
1781801338946236400,3.520236328125,-16.114036560058594,-20.86095428466797,-10.946876525878906
1781801338962241000,3.536240966796875,-13.747173309326172,-21.202119827270508,-4.823105812072754
1781801338978248000,3.552248046875,-9.24079418182373,-16.74022102355957,-0.6498587131500244
1781801338994251000,3.5682509765625,-5.603476524353027,-15.330229759216309,10.309205055236816
1781801339010255000,3.584255126953125,-5.538376808166504,-11.052053451538086,21.390548706054688
1781801339026249700,3.600249755859375,1.1852564811706543,-0.1062159538269043,24.64915657043457
1781801339042248400,3.61624853515625,9.735391616821289,2.998382091522217,35.222625732421875
1781801339058250200,3.632250244140625,21.80078887939453,7.332557678222656,32.521644592285156
1781801339074249700,3.648249755859375,24.580753326416016,1.1313538551330566,28.430517196655273
1781801339090258400,3.664258544921875,15.387792587280273,-9.627691268920898,25.970378875732422
1781801339106267600,3.680267578125,0.0789036750793457,-14.936812400817871,30.398189544677734
1781801339122273800,3.696273681640625,-7.286369323730469,-11.400676727294922,28.13971519470215
1781801339138274300,3.7122744140625,-7.200901985168457,-9.800607681274414,21.034448623657227
1781801339154275800,3.72827587890625,-3.883143901824951,-14.581287384033203,15.810858726501465
1781801339170284500,3.744284423828125,-1.9905341863632202,-19.40109634399414,11.04074478149414
1781801339186290000,3.7602900390625,-1.527586579322815,-21.37880516052246,8.704475402832031
1781801339202296800,3.776296875,-4.4854044914245605,-27.3441162109375,4.4233245849609375
1781801339218302700,3.792302734375,-12.90822982788086,-28.680545806884766,-2.1321091651916504
1781801339234307300,3.808307373046875,-25.1104793548584,-24.050209045410156,-17.384368896484375
1781801339250316300,3.82431640625,-34.59725570678711,-17.664918899536133,-33.67731475830078
1781801339266326500,3.840326416015625,-28.649898529052734,-18.5782527923584,-37.895328521728516
1781801339282333700,3.856333740234375,-19.488258361816406,-27.42049789428711,-35.58148193359375
1781801339298340900,3.8723408203125,-12.470425605773926,-34.81846237182617,-26.12616729736328
1781801339314346500,3.888346435546875,-9.836102485656738,-41.805198669433594,-16.132978439331055
1781801339330351900,3.904351806640625,-13.723037719726562,-48.639892578125,-8.768383026123047
1781801339346357800,3.920357666015625,-23.891889572143555,-58.69524383544922,3.948619842529297
1781801339362364000,3.936364013671875,-41.9637336730957,-52.787357330322266,34.37605667114258
1781801339378365000,3.952364990234375,-45.073673248291016,-24.341936111450195,64.82805633544922
1781801339394367200,3.9683671875,-28.04421615600586,-10.258560180664062,70.64860534667969
1781801339410370300,3.984370361328125,-3.5747175216674805,-24.580921173095703,54.00489807128906
1781801339426373400,4.000373291015625,-0.22218012809753418,-39.533782958984375,24.047203063964844
1781801339442377500,4.01637744140625,-14.579998016357422,-36.043785095214844,6.227505207061768
1781801339458385200,4.03238525390625,-18.626569747924805,-35.49817657470703,-0.08334684371948242
1781801339474391600,4.0483916015625,-7.7002644538879395,-37.481414794921875,-1.848097801208496
1781801339490397200,4.064397216796875,1.2763018608093262,-37.76188659667969,-3.7083468437194824
1781801339506403000,4.080403076171875,4.203758239746094,-35.98326873779297,-5.778127193450928
1781801339522406100,4.09640625,5.329705238342285,-35.615516662597656,-13.043981552124023
1781801339538407700,4.11240771484375,-10.859784126281738,-26.821643829345703,-19.18761444091797
1781801339554409700,4.12840966796875,-22.303190231323242,-24.459447860717773,-21.66327667236328
1781801339570416000,4.144416015625,-24.83889389038086,-28.366436004638672,-17.766971588134766
1781801339586424800,4.1604248046875,-24.63750457763672,-36.49180603027344,-5.868963241577148
1781801339602432000,4.176431884765625,-15.895644187927246,-43.64432144165039,10.7979736328125
1781801339618437000,4.19243701171875,1.1828699111938477,-40.450950622558594,18.46402359008789
1781801339634441500,4.20844140625,18.95024871826172,-34.76266860961914,4.897958755493164
1781801339650446300,4.2244462890625,6.394024848937988,-37.525840759277344,-15.085054397583008
1781801339666454500,4.24045458984375,3.057868003845215,-43.608699798583984,-7.442160606384277
1781801339682457900,4.256457763671875,10.61630916595459,-40.32826232910156,9.862507820129395
1781801339698463200,4.272463134765625,12.940505027770996,-34.80574035644531,15.609490394592285
1781801339714475500,4.2884755859375,15.896415710449219,-31.65135383605957,3.8493456840515137
1781801339730481700,4.304481689453125,32.847957611083984,-30.799888610839844,-0.051001787185668945
1781801339746493200,4.3204931640625,36.589263916015625,-22.19490623474121,12.620448112487793
1781801339762500600,4.33650048828125,41.841556549072266,-9.203778266906738,10.340045928955078
1781801339778505700,4.352505615234375,46.970890045166016,-8.107516288757324,2.8173298835754395
1781801339794508500,4.368508544921875,41.10344696044922,-9.779319763183594,6.141435623168945
1781801339810512000,4.384511962890625,35.045021057128906,-13.688541412353516,7.845686435699463
1781801339826520000,4.40052001953125,28.184326171875,-15.397522926330566,6.908871650695801
1781801339842529500,4.416529541015625,28.605125427246094,-16.989463806152344,1.586805820465088
1781801339858538500,4.43253857421875,28.202726364135742,-22.555484771728516,3.894242763519287
1781801339874547700,4.448547607421875,24.291458129882812,-20.450761795043945,19.7518367767334
1781801339890546000,4.4645458984375,21.625450134277344,-19.070106506347656,29.65303611755371
1781801339906545200,4.480545166015625,23.104822158813477,-22.691287994384766,28.321168899536133
1781801339922548500,4.496548583984375,20.022829055786133,-28.849288940429688,29.916812896728516
1781801339938558500,4.512558349609375,14.857004165649414,-36.03032684326172,32.34566879272461
1781801339954572500,4.528572509765625,7.636157512664795,-38.57256317138672,34.881717681884766
1781801339970579200,4.5445791015625,1.6423685550689697,-39.56761169433594,33.912200927734375
1781801339986580000,4.560580078125,-0.9291131496429443,-42.69226837158203,27.52707290649414
1781801340002588200,4.576588134765625,-5.271198749542236,-41.99267578125,22.984573364257812
1781801340018598400,4.592598388671875,-12.628469467163086,-41.226318359375,15.188817977905273
1781801340034610400,4.6086103515625,-19.721813201904297,-33.03791046142578,1.2457008361816406
1781801340050624500,4.62462451171875,-22.234107971191406,-27.32670021057129,-10.826236724853516
1781801340066633700,4.6406337890625,-22.282550811767578,-22.261117935180664,-13.545907974243164
1781801340082644500,4.65664453125,-16.750139236450195,-26.363021850585938,-24.15264129638672
1781801340098654200,4.672654296875,-11.235413551330566,-25.099458694458008,-26.029720306396484
1781801340114661400,4.688661376953125,4.242335319519043,-32.761417388916016,-13.016403198242188
1781801340130660600,4.70466064453125,-4.374261856079102,-38.188541412353516,11.274736404418945
1781801340146665200,4.720665283203125,-25.74492073059082,-34.78571701049805,25.88079071044922
1781801340162667000,4.7366669921875,-28.64336585998535,-21.191238403320312,37.22953414916992
1781801340178671000,4.752671142578125,-11.212444305419922,-9.860807418823242,38.08440399169922
1781801340194675200,4.76867529296875,15.019611358642578,-15.166263580322266,24.640247344970703
1781801340210675700,4.78467578125,-13.265778541564941,-15.999497413635254,30.263050079345703
1781801340226673700,4.800673583984375,-44.61002731323242,-13.256303787231445,23.128820419311523
1781801340242671400,4.81667138671875,-46.06416702270508,-14.455446243286133,5.438119888305664
1781801340258671400,4.83267138671875,-20.841766357421875,-17.583662033081055,-3.810234546661377
1781801340274672400,4.84867236328125,18.0634822845459,-15.501401901245117,-20.336271286010742
1781801340290674400,4.86467431640625,30.061504364013672,1.8045406341552734,-21.57770538330078
1781801340306680800,4.880680908203125,25.74509048461914,6.93574857711792,-15.577077865600586
1781801340322685400,4.896685546875,19.184789657592773,3.599850654602051,-20.74226188659668
1781801340338687700,4.912687744140625,7.731973648071289,2.5317983627319336,-32.472320556640625
1781801340354692600,4.928692626953125,4.022678852081299,0.6152749061584473,-46.93357467651367
1781801340370693600,4.944693603515625,8.169483184814453,-6.689184188842773,-41.702552795410156
1781801340386692900,4.96069287109375,13.43902587890625,-7.5228376388549805,-26.399049758911133
1781801340402694100,4.976694091796875,17.47696876525879,-17.14200782775879,-2.0158956050872803
1781801340418699000,4.992698974609375,9.990163803100586,-9.559059143066406,31.534852981567383
1781801340434706400,5.00870654296875,-0.031012535095214844,-1.1711735725402832,62.975704193115234
1781801340450714400,5.02471435546875,-0.1586747169494629,-4.636309623718262,70.85334014892578
1781801340466725400,5.040725341796875,1.249349594116211,-14.522676467895508,63.553749084472656
1781801340482730200,5.056730224609375,1.4742579460144043,-31.658138275146484,48.790042877197266
1781801340498738700,5.07273876953125,-9.590834617614746,-51.77851486206055,29.499759674072266
1781801340514740700,5.08874072265625,-31.660112380981445,-56.706809997558594,8.648557662963867
1781801340530744600,5.10474462890625,-45.056358337402344,-39.78339767456055,-33.06880569458008
1781801340546752000,5.120751953125,-34.35740661621094,-13.415809631347656,-76.78472137451172
1781801340562759700,5.136759765625,-5.475395202636719,1.8072681427001953,-77.40467071533203
1781801340578759200,5.15275927734375,16.132083892822266,-26.947999954223633,-41.71748733520508
1781801340594765300,5.168765380859375,14.796611785888672,-46.98870086669922,-4.588230133056641
1781801340610776000,5.184776123046875,-21.010597229003906,-56.28584289550781,28.54184913635254
1781801340626777300,5.20077734375,-48.46467208862305,-24.78789710998535,58.423561096191406
1781801340642784300,5.2167841796875,-47.37518310546875,-17.13824462890625,75.3323745727539
1781801340658787600,5.23278759765625,-40.32188415527344,-22.131832122802734,70.36509704589844
1781801340674798300,5.24879833984375,-28.47285270690918,-32.323768615722656,50.90349197387695
1781801340690811400,5.264811279296875,-15.898454666137695,-43.2283935546875,28.72201156616211
1781801340706824700,5.28082470703125,-15.285686492919922,-51.34012985229492,7.674703121185303
1781801340722833000,5.2968330078125,-21.738422393798828,-51.42228698730469,-25.35332489013672
1781801340738842000,5.312842041015625,-18.610553741455078,-25.77277946472168,-76.9595718383789
1781801340754847500,5.328847412109375,3.189544677734375,0.05931687355041504,-77.75865173339844
1781801340770853400,5.344853271484375,13.849396705627441,-24.509151458740234,-63.890777587890625
1781801340786855000,5.36085498046875,2.347818374633789,-45.841896057128906,-16.880861282348633
1781801340802862300,5.3768623046875,-23.823123931884766,-46.491886138916016,26.834827423095703
1781801340818862000,5.392862060546875,-42.497711181640625,-19.780351638793945,74.28633880615234
1781801340834855000,5.40885498046875,-45.20946502685547,-12.100183486938477,74.29521942138672
1781801340850854100,5.424854248046875,-34.94189453125,-27.515974044799805,58.35433578491211
1781801340866858500,5.4408583984375,-28.522113800048828,-39.73850631713867,32.94279861450195
1781801340882862000,5.456862060546875,-17.587940216064453,-50.26303482055664,9.778000831604004
1781801340898864400,5.472864501953125,-9.21717643737793,-50.525123596191406,-45.811397552490234
1781801340914867500,5.488867431640625,-2.9861812591552734,-12.734416961669922,-78.8122787475586
1781801340930875100,5.504875244140625,7.187255859375,-5.366347789764404,-79.44174194335938
1781801340946877200,5.520877197265625,19.007986068725586,-31.68981170654297,-49.047767639160156
1781801340962877700,5.536877685546875,1.9730510711669922,-44.509727478027344,10.995038986206055
1781801340978876700,5.552876708984375,-20.07910919189453,-31.08497428894043,62.46097946166992
1781801340994877200,5.568877197265625,-31.890886306762695,-8.618657112121582,74.00074768066406
1781801341010880500,5.584880615234375,-30.38450813293457,-13.886283874511719,74.1553726196289
1781801341026880300,5.60088037109375,-26.83392333984375,-30.793806076049805,54.73638916015625
1781801341042876200,5.616876220703125,-23.955516815185547,-44.036659240722656,25.401025772094727
1781801341058873300,5.632873291015625,-13.599700927734375,-50.29043197631836,-19.48244857788086
1781801341074866200,5.6488662109375,0.3842334747314453,-24.175212860107422,-78.66226959228516
1781801341090865200,5.664865234375,6.27288818359375,2.3030991554260254,-78.60136413574219
1781801341106865200,5.680865234375,19.334537506103516,-18.275306701660156,-72.46406555175781
1781801341122866200,5.6968662109375,22.414031982421875,-31.327171325683594,-24.83772087097168
1781801341138866200,5.7128662109375,6.837847709655762,-40.64352035522461,14.938427925109863
1781801341154866700,5.72886669921875,-22.27613067626953,-21.287302017211914,65.48921203613281
1781801341170874600,5.74487451171875,-32.53642654418945,-1.7210500240325928,73.45706939697266
1781801341186881800,5.7608818359375,-21.310346603393555,-11.478547096252441,70.23029327392578
1781801341202886100,5.77688623046875,-14.452739715576172,-25.14324951171875,39.816673278808594
1781801341218894300,5.792894287109375,-12.193438529968262,-29.913103103637695,8.134650230407715
1781801341234897200,5.808897216796875,-5.238192081451416,-28.438344955444336,-24.724403381347656
1781801341250901500,5.824901611328125,9.353090286254883,-13.297307968139648,-69.67372131347656
1781801341266902500,5.840902587890625,15.098970413208008,-4.165100574493408,-76.98785400390625
1781801341282905600,5.856905517578125,13.960376739501953,-18.279817581176758,-77.41436004638672
1781801341298908700,5.87290869140625,15.171563148498535,-38.17335891723633,-42.61659240722656
1781801341314915300,5.888915283203125,10.892984390258789,-47.41218185424805,-15.567923545837402
1781801341330922000,5.904921875,-6.184151649475098,-50.92494583129883,15.152196884155273
1781801341346923500,5.920923583984375,-31.65924644470215,-34.44575881958008,52.67934036254883
1781801341362919200,5.936919189453125,-46.692054748535156,-14.641824722290039,71.00381469726562
1781801341378916600,5.95291650390625,-43.20619201660156,-14.984468460083008,67.54924774169922
1781801341394923300,5.96892333984375,-28.707319259643555,-21.62679100036621,45.69589614868164
1781801341410934500,5.9849345703125,-17.116613388061523,-27.347795486450195,30.850339889526367
1781801341426947800,6.00094775390625,-5.273775100708008,-31.978939056396484,20.134742736816406
1781801341442962700,6.016962646484375,0.17255878448486328,-34.33096694946289,9.724532127380371
1781801341458979000,6.03297900390625,5.391812324523926,-35.418033599853516,0.43770313262939453
1781801341474996200,6.048996337890625,4.242742538452148,-32.306724548339844,-9.698882102966309
1781801341491016200,6.06501611328125,1.816941261291504,-29.04176139831543,-17.562570571899414
1781801341507041300,6.081041259765625,-4.62550163269043,-24.956619262695312,-31.76431655883789
1781801341523065600,6.097065673828125,-13.06620979309082,-19.629850387573242,-52.626277923583984
1781801341539086300,6.11308642578125,-30.715307235717773,-16.017818450927734,-64.32662200927734
1781801341555105500,6.12910546875,-40.390785217285156,-24.29816436767578,-55.590641021728516
1781801341571126800,6.145126708984375,-39.800209045410156,-40.636497497558594,-28.699934005737305
1781801341587153400,6.1611533203125,-37.57863998413086,-55.206153869628906,-3.0107152462005615
1781801341603178800,6.1771787109375,-34.86750030517578,-61.81278991699219,10.363255500793457
1781801341619202300,6.193202392578125,-28.878934860229492,-60.565025329589844,10.29329776763916
1781801341635223300,6.209223388671875,-20.81627655029297,-56.66804885864258,-1.2416541576385498
1781801341651246300,6.225246337890625,-14.641311645507812,-56.64901351928711,-6.617115020751953
1781801341667275000,6.24127490234375,-6.540798187255859,-50.975379943847656,7.852564811706543
1781801341683297000,6.257297119140625,1.5339183807373047,-36.39934539794922,25.900720596313477
1781801341699323000,6.273322998046875,15.467065811157227,-24.44393539428711,15.894449234008789
1781801341715355600,6.289355712890625,24.395645141601562,-22.10338020324707,3.998152256011963
1781801341731386400,6.305386474609375,21.214887619018555,-21.702505111694336,4.702103137969971
1781801341747418600,6.321418701171875,19.053565979003906,-22.44894027709961,3.6078362464904785
1781801341763453000,6.337452880859375,26.094547271728516,-19.912208557128906,-0.5356191396713257
1781801341779485200,6.353485107421875,34.20000457763672,-17.795257568359375,2.8556876182556152
1781801341795517200,6.36951708984375,37.65353012084961,-13.356471061706543,5.951189994812012
1781801341811551500,6.385551513671875,37.054073333740234,-12.63892936706543,5.613243103027344
1781801341827581400,6.40158154296875,34.882904052734375,-15.156990051269531,4.378113746643066
1781801341891731000,6.46573095703125,25.56230926513672,-23.87299919128418,13.958267211914062
1781801341907776800,6.48177685546875,21.932519912719727,-27.794593811035156,15.708444595336914
1781801341923815200,6.497815185546875,16.771385192871094,-31.404132843017578,12.409244537353516
1781801341939852800,6.513852783203125,10.3236083984375,-31.500141143798828,15.554040908813477
1781801341955894300,6.529894287109375,3.961566925048828,-27.802444458007812,18.954938888549805
1781801341971937500,6.5459375,-1.5686087608337402,-23.524627685546875,23.880779266357422
1781801341987983400,6.5619833984375,-7.072113990783691,-19.92529296875,26.456209182739258
1781801342004022300,6.578022216796875,-10.606630325317383,-20.269973754882812,19.921342849731445
1781801342020057900,6.594057861328125,-15.417732238769531,-18.349855422973633,10.483463287353516
1781801342036097300,6.61009716796875,-17.94917106628418,-15.917068481445312,-0.9613685607910156
1781801342052138500,6.626138427734375,-17.731996536254883,-13.845733642578125,-13.555788040161133
1781801342068180200,6.64218017578125,-17.728212356567383,-11.024239540100098,-24.27945327758789
1781801342084223700,6.6582236328125,-17.457670211791992,-13.389872550964355,-17.677671432495117
1781801342100265200,6.67426513671875,-20.172805786132812,-18.130531311035156,-8.202746391296387
1781801342116307700,6.6903076171875,-19.237751007080078,-21.647445678710938,-2.221651077270508
1781801342132359400,6.706359375,-15.246899604797363,-26.447284698486328,-5.521326541900635
1781801342148407600,6.722407470703125,-9.830560684204102,-30.240028381347656,-13.435876846313477
1781801342164458500,6.73845849609375,-7.398421287536621,-37.06293869018555,-15.4273681640625
1781801342180515600,6.754515625,-5.856410980224609,-43.326377868652344,-7.205211162567139
1781801342196569300,6.7705693359375,10.120160102844238,-38.65653610229492,-5.417459487915039
1781801342212624400,6.786624267578125,32.76207733154297,-27.99506187438965,-7.785832405090332
1781801342228677000,6.802677001953125,43.598548889160156,-22.550621032714844,-6.4888129234313965
1781801342244727800,6.818727783203125,46.097389221191406,-23.1337947845459,3.515775680541992
1781801342260783000,6.834783203125,43.206817626953125,-20.28409194946289,15.90703010559082
1781801342284865800,6.85886572265625,27.789220809936523,-15.929391860961914,31.648740768432617
1781801342300918000,6.87491796875,26.73282241821289,-15.490159034729004,28.207155227661133
1781801342316979000,6.89097900390625,25.70392608642578,-13.899898529052734,22.30739402770996
1781801342333037600,6.90703759765625,27.14304542541504,-14.042818069458008,18.166372299194336
1781801342349098000,6.923097900390625,26.251564025878906,-16.14575958251953,15.843073844909668
1781801342365163300,6.939163330078125,20.01143455505371,-19.600059509277344,16.744556427001953
1781801342381226800,6.955226806640625,12.941787719726562,-22.620315551757812,19.427133560180664
1781801342397294600,6.971294677734375,5.925860404968262,-25.752281188964844,17.711814880371094
1781801342413366500,6.987366455078125,0.7545132637023926,-25.525188446044922,12.640113830566406
1781801342429433900,7.003433837890625,-0.06439781188964844,-23.61581039428711,6.651609897613525
1781801342445499100,7.0194990234375,3.8457279205322266,-22.301485061645508,2.109351396560669
1781801342461562400,7.035562255859375,1.7693724632263184,-23.196243286132812,1.107435941696167
1781801342477620000,7.051619873046875,-2.0645833015441895,-24.400381088256836,-4.264367580413818
1781801342493685000,7.06768505859375,-5.148432731628418,-25.35043716430664,-18.320823669433594
1781801342509739300,7.0837392578125,-12.369894027709961,-23.28354835510254,-36.51416778564453
1781801342525805800,7.099805908203125,-18.260648727416992,-24.80838394165039,-41.377689361572266
1781801342541866500,7.115866455078125,-12.156442642211914,-32.87506866455078,-38.371116638183594
1781801342557932500,7.1319326171875,-1.2612693309783936,-36.14225387573242,-33.10712432861328
1781801342573993500,7.147993408203125,26.33829116821289,-30.19395637512207,-30.233684539794922
1781801342590058000,7.16405810546875,40.853736877441406,-16.64847183227539,-27.743783950805664
1781801342606122000,7.1801220703125,30.07182502746582,-15.209280014038086,-25.591257095336914
1781801342622187300,7.196187255859375,29.690767288208008,-21.739608764648438,-22.479387283325195
1781801342638255400,7.21225537109375,27.923269271850586,-26.815166473388672,-8.460281372070312
1781801342654322000,7.228322021484375,28.866165161132812,-30.109210968017578,0.32729190587997437
1781801342670391300,7.244391357421875,27.99243927001953,-31.07343292236328,8.037771224975586
1781801342686457600,7.26045751953125,29.897377014160156,-31.544532775878906,20.811473846435547
1781801342702522000,7.276522216796875,23.230379104614258,-26.691486358642578,34.121341705322266
1781801342718592000,7.292592041015625,19.126728057861328,-22.747852325439453,36.519203186035156
1781801342734663400,7.308663330078125,16.816913604736328,-17.056699752807617,33.801597595214844
1781801342750731500,7.3247314453125,21.371540069580078,-15.905071258544922,26.3724422454834
1781801342766803200,7.34080322265625,25.735511779785156,-16.09963035583496,21.739028930664062
1781801342782876200,7.356876220703125,19.772634506225586,-19.97838592529297,22.805728912353516
1781801342798947000,7.372947021484375,16.032819747924805,-25.744583129882812,19.65293312072754
1781801342815019800,7.389019775390625,8.30463981628418,-34.76213073730469,14.973736763000488
1781801342831087900,7.405087890625,1.913811206817627,-39.76781463623047,8.164264678955078
1781801342847157200,7.4211572265625,-1.090688705444336,-40.86628723144531,-2.006087064743042
1781801342871269600,7.44526953125,-20.44850730895996,-36.759490966796875,-20.806772232055664
1781801342887347200,7.46134716796875,-25.907861709594727,-26.60580062866211,-51.10063934326172
1781801342903426600,7.477426513671875,-23.236452102661133,-18.67028045654297,-61.51260757446289
1781801342919509800,7.493509765625,-16.26375961303711,-24.18907928466797,-51.90427017211914
1781801342935592700,7.5095927734375,-9.21895694732666,-27.2313175201416,-40.395267486572266
1781801342951670800,7.5256708984375,0.6191659569740295,-29.092472076416016,-34.035240173339844
1781801342975793200,7.549793212890625,18.57265853881836,-34.114540100097656,-31.665979385375977
1781801342991876000,7.5658759765625,29.929058074951172,-35.62837219238281,-23.77495765686035
1781801343007953400,7.581953369140625,21.777950286865234,-37.28086471557617,-6.719790458679199
1781801343024031000,7.598031005859375,17.59343910217285,-32.100032806396484,9.677356719970703
1781801343040110600,7.614110595703125,35.734432220458984,-21.02648162841797,15.55224895477295
1781801343056191500,7.63019140625,50.82377624511719,-15.517976760864258,22.811670303344727
1781801343072273000,7.64627294921875,43.77779006958008,-13.397216796875,33.2278938293457
1781801343088351500,7.6623515625,39.343379974365234,-11.075641632080078,37.163333892822266
1781801343104432000,7.67843212890625,37.43659210205078,-8.696907043457031,32.23958969116211
1781801343120507100,7.694507080078125,33.971900939941406,-8.598638534545898,25.648269653320312
1781801343144620500,7.71862060546875,33.761592864990234,-14.45806884765625,12.741531372070312
1781801343160698600,7.73469873046875,28.20012664794922,-21.007469177246094,4.230910778045654
1781801343176777000,7.75077685546875,18.3438720703125,-24.95632553100586,-2.6386404037475586
1781801343192855300,7.766855224609375,12.169290542602539,-22.8209228515625,-8.646717071533203
1781801343208929800,7.7829296875,8.767976760864258,-25.77840232849121,-14.039374351501465
1781801343225000200,7.799000244140625,1.4880127906799316,-25.092979431152344,-19.56336784362793
1781801343241070800,7.81507080078125,-5.58022928237915,-23.41521644592285,-24.038314819335938
1781801343257138200,7.83113818359375,-6.281430244445801,-21.724430084228516,-26.992399215698242
1781801343281252600,7.855252685546875,-0.25494956970214844,-22.671451568603516,-32.22438430786133
1781801343297327400,7.871327392578125,-4.614018440246582,-21.715917587280273,-32.454368591308594
1781801343313400800,7.88740087890625,-11.064610481262207,-19.639144897460938,-31.49112319946289
1781801343329467400,7.90346728515625,-24.952117919921875,-19.366432189941406,-33.522403717041016
1781801343345536800,7.919536865234375,-37.683937072753906,-17.109603881835938,-30.45511245727539
1781801343361606400,7.9356064453125,-34.056156158447266,-24.42181396484375,-25.606353759765625
1781801343377680400,7.951680419921875,-19.30881118774414,-39.06008529663086,-22.36874771118164
1781801343393751300,7.967751220703125,-7.809220314025879,-55.02131271362305,-20.928203582763672
1781801343409826000,7.983825927734375,0.7808897495269775,-70.1326904296875,-21.481468200683594
1781801343425902600,7.999902587890625,19.90641212463379,-76.22272491455078,-15.48388957977295
1781801343441981400,8.0159814453125,37.86353302001953,-59.59253692626953,-6.684599876403809
1781801343458064400,8.032064453125,53.13142776489258,-42.48038864135742,3.6484146118164062
1781801343474152400,8.04815234375,51.93752670288086,-25.03407096862793,12.568252563476562
1781801343490235000,8.06423486328125,35.06806182861328,-17.003639221191406,11.626591682434082
1781801343506314200,8.080314208984374,32.57746505737305,-14.0584135055542,7.892000675201416
1781801343522394600,8.09639453125,41.64196014404297,-8.644082069396973,9.785472869873047
1781801343538475000,8.11247509765625,40.545806884765625,-7.79767370223999,4.4623918533325195
1781801343554554000,8.12855419921875,34.736717224121094,-9.846120834350586,-3.9920639991760254
1781801343570626600,8.14462646484375,35.98319625854492,-9.178518295288086,-5.4291839599609375
1781801343586702300,8.160702392578125,36.11306381225586,-11.019641876220703,0.10154390335083008
1781801343602779600,8.176779541015625,30.599472045898438,-13.033019065856934,6.657386779785156
1781801343618852900,8.192852783203126,24.579370498657227,-20.002946853637695,12.486550331115723
1781801343634930400,8.208930419921876,19.945079803466797,-30.660568237304688,4.965766429901123
1781801343651002400,8.22500244140625,13.674575805664062,-37.430545806884766,-6.048994064331055
1781801343667072800,8.24107275390625,9.707854270935059,-34.86856460571289,-8.880062103271484
1781801343683137300,8.25713720703125,2.7474350929260254,-29.441822052001953,-8.161142349243164
1781801343699203800,8.273203857421874,-6.528712272644043,-25.745834350585938,-6.895622730255127
1781801343715271400,8.289271484375,-15.232198715209961,-21.456199645996094,-7.823385715484619
1781801343731338500,8.30533837890625,-23.07791519165039,-19.285551071166992,-11.832670211791992
1781801343747406000,8.321406005859375,-22.563169479370117,-16.799800872802734,-12.371254920959473
1781801343763477800,8.337477783203125,-16.385528564453125,-18.43147850036621,-13.664114952087402
1781801343779551500,8.353551513671874,-17.099214553833008,-17.772293090820312,-16.872514724731445
1781801343795634000,8.369634033203125,-18.148609161376953,-16.59196662902832,-19.085939407348633
1781801343811707600,8.385707763671874,-22.0880184173584,-17.534778594970703,-22.525434494018555
1781801343827779000,8.401779052734375,-28.79635238647461,-19.94967269897461,-25.206722259521484
1781801343843846400,8.417846435546876,-29.28803253173828,-25.424053192138672,-25.57308578491211
1781801343867952600,8.44195263671875,-19.25572967529297,-46.36537551879883,-23.85982322692871
1781801343884022800,8.458022705078125,-4.762941837310791,-63.92072677612305,-16.431909561157227
1781801343900094000,8.474093994140626,19.537994384765625,-66.75238037109375,-7.415712356567383
1781801343916162600,8.49016259765625,55.566226959228516,-41.8583984375,-0.7612221240997314
1781801343932225300,8.506225341796876,57.85505294799805,-18.728702545166016,9.090864181518555
1781801343948289000,8.5222890625,42.95241165161133,-14.17175579071045,17.625268936157227
1781801343964355600,8.53835546875,35.29826354980469,-10.70334243774414,20.11024284362793
1781801343980418300,8.554418212890624,23.693416595458984,-8.068120956420898,16.32765769958496
1781801343996486700,8.570486572265626,18.742719650268555,-5.845808982849121,7.82119607925415
1781801344012554200,8.58655419921875,14.565348625183105,-4.285537242889404,-1.299065351486206
1781801344028625200,8.602625244140626,8.863014221191406,-2.434837579727173,-3.480695962905884
1781801344044693800,8.61869384765625,5.79130744934082,1.2147669792175293,-4.591006278991699
1781801344060758500,8.634758544921874,6.7631707191467285,1.932279109954834,-4.954034328460693
1781801344076824300,8.65082421875,5.933206081390381,0.26148080825805664,-5.431795120239258
1781801344092890400,8.666890380859375,3.5747199058532715,-1.633120059967041,-5.001932144165039
1781801344108954400,8.682954345703125,0.6654510498046875,-3.192944049835205,-3.2955241203308105
1781801344125017600,8.699017578125,-1.484198808670044,-3.441956043243408,-1.790647268295288
1781801344141080600,8.71508056640625,-2.7901363372802734,-3.5557422637939453,-1.564002513885498
1781801344157145600,8.7311455078125,-2.5342161655426025,-3.3240270614624023,-2.8033993244171143
1781801344173212700,8.747212646484375,-1.128523588180542,-2.70466947555542,-4.099130630493164
1781801344189275400,8.763275390625,0.24784612655639648,-2.7038450241088867,-5.572844505310059
1781801344205339000,8.7793388671875,1.1944174766540527,-2.7355008125305176,-6.967240333557129
1781801344221400000,8.795400146484376,1.594228744506836,-2.5576977729797363,-7.5700178146362305
1781801344237459700,8.811459716796875,1.6105380058288574,-2.2099127769470215,-7.219452857971191
1781801344253524200,8.827524169921874,1.7232003211975098,-1.983269214630127,-6.064267635345459
1781801344269591300,8.84359130859375,1.8138151168823242,-1.4596338272094727,-5.202007293701172
1781801344285658600,8.85965869140625,1.6926665306091309,-1.0563597679138184,-4.6754631996154785
1781801344301723000,8.875722900390626,2.2100701332092285,-1.0713725090026855,-4.596959590911865
1781801344317789200,8.8917890625,3.413297176361084,-0.9231047630310059,-4.515694618225098
1781801344333851600,8.9078515625,4.489860534667969,-0.7475008964538574,-4.5201520919799805
1781801344349909500,8.923909423828125,4.925732612609863,-0.7859663963317871,-5.1259050369262695
1781801344365968400,8.939968505859374,4.585397243499756,-0.9191393852233887,-5.435525894165039
1781801344382027000,8.956027099609376,3.80055570602417,-0.7874245643615723,-5.5579514503479
1781801344398084000,8.972083984375,3.0325722694396973,-0.9066247940063477,-5.707845211029053
1781801344414147300,8.988147216796875,2.6573657989501953,-1.6121501922607422,-5.28248405456543
1781801344438239000,9.012239013671875,2.289003849029541,-2.704094409942627,-4.966550827026367
1781801344454295000,9.028294921875,2.712399959564209,-2.3784232139587402,-5.54421329498291
1781801344470352400,9.044352294921875,2.8596439361572266,-2.8663878440856934,-5.036464691162109
1781801344486412800,9.060412841796875,2.7352004051208496,-2.998415946960449,-4.519313335418701
1781801344502476800,9.076476806640626,2.2844882011413574,-2.4285950660705566,-4.403744697570801
1781801344518541000,9.092541015625,1.9010257720947266,-2.1236958503723145,-4.337858200073242
1781801344534604000,9.10860400390625,2.703484535217285,-1.5945720672607422,-2.306687831878662
1781801344550667000,9.1246669921875,2.9884495735168457,-1.1756887435913086,-1.5077216625213623
1781801344566727700,9.140727783203126,3.6726837158203125,-1.40755033493042,-1.9132459163665771
1781801344582792700,9.156792724609375,4.048859596252441,-2.1285243034362793,-2.9442265033721924
1781801344598859300,9.172859375,3.9785008430480957,-2.3761539459228516,-3.9486875534057617
1781801344614917000,9.188917236328125,3.771182060241699,-2.467132568359375,-4.5951995849609375
1781801344630976000,9.20497607421875,3.69625186920166,-2.2221522331237793,-4.304644584655762
1781801344647031300,9.22103125,3.5899224281311035,-1.988924503326416,-3.837273120880127
1781801344663090400,9.23709033203125,3.6036338806152344,-2.0461034774780273,-3.354332447052002
1781801344679144400,9.25314453125,3.679936408996582,-2.0603504180908203,-3.1729793548583984
1781801344695204600,9.26920458984375,3.47001314163208,-2.2904772758483887,-3.1485748291015625
1781801344711269600,9.28526953125,3.0841779708862305,-2.577918529510498,-3.1048693656921387
1781801344727323400,9.301323486328124,2.8644394874572754,-2.4261093139648438,-3.3037099838256836
1781801344743382300,9.31738232421875,2.6707491874694824,-2.1414055824279785,-3.637094497680664
1781801344759442200,9.333442138671876,2.6243300437927246,-2.0767416954040527,-3.8321471214294434
1781801344775501300,9.349501220703125,2.934354782104492,-1.942817211151123,-3.9983766078948975
1781801344791558400,9.365558349609374,3.1528468132019043,-2.0860719680786133,-3.9420599937438965
1781801344807616300,9.3816162109375,3.3184585571289062,-2.1309304237365723,-3.7345268726348877
1781801344823671600,9.397671630859374,3.212085247039795,-2.184659957885742,-3.413883686065674
1781801344839729700,9.413729736328126,2.7615437507629395,-2.253866195678711,-3.4485578536987305
1781801344855791900,9.4297919921875,2.375563621520996,-2.356109142303467,-3.370948314666748
1781801344871844600,9.4458447265625,2.05535888671875,-2.0808558464050293,-3.36995267868042
1781801344887899600,9.461899658203125,2.1028308868408203,-2.1861624717712402,-3.5023140907287598
1781801344903948500,9.477948486328126,3.1819119453430176,-2.0764622688293457,-3.516218423843384
1781801344919999500,9.49399951171875,1.6157317161560059,-1.8302302360534668,-3.9763762950897217
1781801344936051700,9.5100517578125,1.6570467948913574,-1.695387840270996,-3.2241759300231934
1781801344952108300,9.5261083984375,2.5786852836608887,-1.578577995300293,-2.943530797958374
1781801344968166100,9.542166259765626,3.0917282104492188,-2.2387661933898926,-3.2146506309509277
1781801344984223200,9.55822314453125,2.4947190284729004,-2.361072063446045,-4.198135852813721
1781801345000277000,9.574277099609375,2.0576272010803223,-2.171435832977295,-4.190303325653076
1781801345016336400,9.59033642578125,2.3288087844848633,-1.9422812461853027,-3.86381196975708
1781801345032396500,9.606396484375,2.991161346435547,-1.7544565200805664,-3.9213345050811768
1781801345048459000,9.622458984375,4.151735305786133,-2.6010947227478027,-3.7070741653442383
1781801345064513300,9.63851318359375,4.541392803192139,-2.3955469131469727,-4.009258270263672
1781801345080568300,9.654568359375,4.824038028717041,-2.4018173217773438,-3.050044059753418
1781801345096626700,9.670626708984376,1.2844457626342773,-1.9333915710449219,-3.3546290397644043
1781801345112685600,9.686685546875,0.8709993362426758,-1.4585585594177246,-3.0869245529174805
1781801345128753200,9.702753173828125,2.2420620918273926,-1.966235637664795,-3.0874738693237305
1781801345144818200,9.718818115234376,3.306290626525879,-2.3746018409729004,-3.7130794525146484
1781801345160879900,9.7348798828125,3.7497105598449707,-2.416592597961426,-4.2443928718566895
1781801345176941800,9.75094189453125,3.2220206260681152,-2.381162166595459,-4.119500637054443
1781801345193009700,9.767009765625,2.649050235748291,-2.1524710655212402,-3.524742603302002
1781801345209078800,9.783078857421875,2.3922958374023438,-1.92866849899292,-3.122559070587158
1781801345225145300,9.799145263671875,2.6842355728149414,-1.6107096672058105,-3.307568311691284
1781801345241209900,9.8152099609375,3.2297182083129883,-1.8487272262573242,-3.474816083908081
1781801345257272800,9.83127294921875,3.30747127532959,-2.342989921569824,-3.3225998878479004
1781801345273339600,9.847339599609375,3.140937328338623,-2.3703579902648926,-3.08577036857605
1781801345289414000,9.863413818359374,2.7744107246398926,-2.276400089263916,-2.8526604175567627
1781801345305486300,9.879486328125,2.526165008544922,-2.260342597961426,-2.735945701599121
1781801345321559000,9.89555908203125,2.4045767784118652,-2.034660816192627,-2.884258270263672
1781801345337629700,9.911629638671876,2.492978572845459,-1.991370677947998,-3.088002920150757
1781801345353701000,9.927701171875,2.603600025177002,-2.0438313484191895,-3.2423267364501953
1781801345369768000,9.943767822265626,2.6425986289978027,-1.9933805465698242,-3.230778694152832
1781801345385837300,9.95983740234375,2.689204216003418,-2.056694507598877,-2.8575854301452637
1781801345401906200,9.97590625,2.6773719787597656,-1.9231185913085938,-2.700162887573242
1781801345417973000,9.991972900390625,2.7783780097961426,-1.870011806488037,-2.8673110008239746
1781801345434046200,10.008046142578126,2.914785385131836,-1.956681251525879,-3.1086673736572266
1781801345450116400,10.024116455078126,2.9649405479431152,-2.0016818046569824,-3.032504081726074
1781801345466191000,10.040191162109375,3.266977310180664,-1.8887519836425781,-3.376380443572998
1781801345482270700,10.056270751953125,3.2379608154296875,-2.3742709159851074,-3.2256622314453125
1781801345498342000,10.072341796875,2.8858699798583984,-2.2906527519226074,-3.150662422180176
1781801345514414000,10.0884140625,2.528665065765381,-1.8097214698791504,-2.8314626216888428
1781801345530484700,10.104484619140624,2.2062783241271973,-1.4287190437316895,-2.541134834289551
1781801345546566400,10.12056640625,1.9352869987487793,-1.6602449417114258,-2.2973551750183105
1781801345562646300,10.136646240234375,1.8450160026550293,-1.8231043815612793,-2.3474416732788086
1781801345578717700,10.1527177734375,1.8964672088623047,-1.9086012840270996,-2.492246150970459
1781801345594785500,10.16878564453125,1.727564811706543,-1.8147873878479004,-2.527043342590332
1781801345610857200,10.184857177734376,1.6659908294677734,-1.413102626800537,-2.7357797622680664
1781801345626932000,10.200931884765625,1.8598737716674805,-1.4250612258911133,-3.0450639724731445
1781801345643005400,10.21700537109375,1.7856159210205078,-1.709296703338623,-2.458282232284546
1781801345659081700,10.233081787109375,1.5908174514770508,-1.5271692276000977,-2.18210506439209
1781801345675155000,10.249155029296874,1.4111089706420898,-1.4426531791687012,-2.51814341545105
1781801345691229200,10.265229248046875,1.3670287132263184,-1.6900458335876465,-2.749446392059326
1781801345707306500,10.281306396484375,1.4651570320129395,-1.5302414894104004,-2.8591268062591553
1781801345723384800,10.297384765625,1.6480021476745605,-1.4364328384399414,-2.979275703430176
1781801345739457000,10.31345703125,1.7640771865844727,-1.576742172241211,-2.7009899616241455
1781801345755526400,10.3295263671875,1.8263583183288574,-1.5666089057922363,-2.3193588256835938
1781801345771593200,10.34559326171875,1.88336181640625,-1.5823287963867188,-2.1945343017578125
1781801345787666700,10.361666748046876,1.9273643493652344,-1.580906867980957,-2.2693705558776855
1781801345803741000,10.377740966796875,2.0659217834472656,-1.6748318672180176,-2.276190757751465
1781801345819809800,10.393809814453125,2.0924735069274902,-1.5388264656066895,-2.249196767807007
1781801345835877000,10.409877197265626,1.9866981506347656,-1.5542240142822266,-2.355576276779175
1781801345851940900,10.42594091796875,1.8457999229431152,-1.470637321472168,-2.603825092315674
1781801345868004600,10.442004638671875,1.7602906227111816,-1.632878303527832,-2.5988829135894775
1781801345884069400,10.4580693359375,1.7150282859802246,-1.6563715934753418,-2.4510703086853027
1781801345900136200,10.47413623046875,1.694277286529541,-1.6140170097351074,-2.3030567169189453
1781801345916203500,10.49020361328125,1.6253266334533691,-1.6514472961425781,-2.055168390274048
1781801345932270300,10.506270263671874,1.5838088989257812,-1.6460108757019043,-1.7881547212600708
1781801345948335400,10.52233544921875,1.7111940383911133,-1.5705828666687012,-1.6619068384170532
1781801345964394800,10.538394775390625,1.724748134613037,-1.4711761474609375,-1.60525643825531
1781801345980455200,10.554455078125,1.6171116828918457,-1.5549139976501465,-1.5114765167236328
1781801345996513300,10.57051318359375,1.3534178733825684,-1.6029858589172363,-1.3782012462615967
1781801346012567300,10.5865673828125,1.0695862770080566,-1.548487663269043,-1.2698968648910522
1781801346028624100,10.6026240234375,0.7774872779846191,-1.5247817039489746,-1.3802435398101807
1781801346044683300,10.618683349609375,0.5384087562561035,-1.5661444664001465,-1.5065853595733643
1781801346060743200,10.6347431640625,0.5895528793334961,-1.378556728363037,-1.5229060649871826
1781801346076808700,10.65080859375,0.46953535079956055,-1.6388754844665527,-1.3574881553649902
1781801346092872000,10.666871826171874,0.845421314239502,-1.3940706253051758,-1.1228580474853516
1781801346108933400,10.682933349609375,1.2520365715026855,-1.5853524208068848,-1.057489275932312
1781801346124991700,10.69899169921875,1.8960256576538086,-1.5807676315307617,-1.4530484676361084
1781801346141056500,10.715056396484375,2.442685127258301,-1.406076431274414,-1.6089258193969727
1781801346157111800,10.73111181640625,2.6234731674194336,-1.664133071899414,-1.5737372636795044
1781801346173165300,10.747165283203126,2.331615924835205,-1.831686019897461,-1.3122496604919434
1781801346189218600,10.763218505859374,2.145409107208252,-1.4845085144042969,-1.6300973892211914
1781801346205274400,10.7792744140625,2.124429702758789,-1.195143699645996,-2.2255988121032715
1781801346221324500,10.795324462890624,2.0416812896728516,-1.2956175804138184,-2.5373916625976562
1781801346237376000,10.8113759765625,1.9145612716674805,-1.466139793395996,-2.3820745944976807
1781801346253429200,10.82742919921875,1.7373552322387695,-1.535834789276123,-1.7973942756652832
1781801346269477000,10.84347705078125,1.7835240364074707,-1.4614882469177246,-1.1980278491973877
1781801346285527600,10.859527587890625,1.8551573753356934,-1.487412929534912,-0.8715001940727234
1781801346301580300,10.875580322265625,1.8263912200927734,-1.589045524597168,-0.8950506448745728
1781801346317634600,10.891634521484375,1.8050007820129395,-1.610222339630127,-1.0642457008361816
1781801346333689600,10.907689697265624,2.02426815032959,-1.4977412223815918,-1.3364382982254028
1781801346349740500,10.923740478515626,2.2479605674743652,-1.4446024894714355,-1.5618846416473389
1781801346365789400,10.93978955078125,2.2728052139282227,-1.5861682891845703,-1.5235660076141357
1781801346381836800,10.9558369140625,1.8847746849060059,-1.736555576324463,-1.252746820449829
1781801346397885700,10.9718857421875,1.4312567710876465,-1.6410908699035645,-1.1217507123947144
1781801346413937200,10.987937255859375,1.0827727317810059,-1.539412021636963,-1.169838786125183
1781801346429990400,11.003990478515625,0.9130668640136719,-1.511734962463379,-1.2108794450759888
1781801346446045400,11.02004541015625,0.997373104095459,-1.4315576553344727,-1.2380027770996094
1781801346486192600,11.060192626953125,1.0617756843566895,-1.4550771713256836,-1.0491291284561157
1781801346502249200,11.076249267578126,1.0180435180664062,-1.5298471450805664,-1.131324052810669
1781801346518303200,11.09230322265625,0.9821310043334961,-1.488293170928955,-1.1554492712020874
1781801346542396700,11.116396728515625,1.603668212890625,-1.3931598663330078,-1.0118597745895386
1781801346646811000,11.220810791015625,0.6911931037902832,-1.230665683746338,-1.0982105731964111
1781801346662875100,11.236875244140625,0.7786788940429688,-1.3442716598510742,-1.141390323638916
1781801346678940400,11.2529404296875,1.2012414932250977,-1.2983689308166504,-1.2824645042419434
1781801346703036000,11.277035888671875,1.6047744750976562,-1.3512763977050781,-1.0170891284942627
1781801346719096600,11.2930966796875,1.6696105003356934,-1.156184196472168,-0.9601535201072693
1781801346735157200,11.3091572265625,1.8057146072387695,-1.0733880996704102,-1.0329525470733643
1781801346751223600,11.3252236328125,1.4584903717041016,-1.4970760345458984,-0.9381848573684692
