time,seconds_elapsed,z,y,x
1781801335496902700,0.070902587890625,0.0006108652451075613,-0.031154127791523933,0.001832595793530345
1781801335512916700,0.086916748046875,0.0006108652451075613,-0.031154127791523933,0.001832595793530345
1781801335528932600,0.1029326171875,0.0006108652451075613,-0.031154127791523933,0.001832595793530345
1781801335544947200,0.118947265625,0.0006108652451075613,-0.031154127791523933,0.001832595793530345
1781801335560956700,0.134956787109375,0.0006108652451075613,-0.031154127791523933,0.001832595793530345
1781801335576969500,0.150969482421875,0.0006108652451075613,-0.031154127791523933,0.001832595793530345
1781801335592974800,0.166974853515625,0.0006108652451075613,-0.031154127791523933,0.001832595793530345
1781801335608982800,0.182982666015625,0.003054326167330146,-0.04214970022439957,-0.00427605677396059
1781801335624988400,0.198988525390625,0.0024434609804302454,-0.13316862285137177,-0.04764748737215996
1781801335640993300,0.2149931640625,0.0012217304902151227,0.021991148591041565,0.029932396486401558
1781801335656995800,0.230995849609375,0.003054326167330146,-0.05192354694008827,-0.005497787147760391
1781801335673000400,0.24700048828125,0.0012217304902151227,-0.024434609338641167,0.006108652334660292
1781801335688999700,0.262999755859375,0.0012217304902151227,-0.018325956538319588,0.00855211354792118
1781801335704997600,0.27899755859375,0.0024434609804302454,-0.02382374368607998,0.006719517521560192
1781801335720997600,0.29499755859375,0.001832595793530345,-0.021991148591041565,0.00855211354792118
1781801335736997600,0.31099755859375,0.0012217304902151227,-0.02076941914856434,0.00733038317412138
1781801335752998000,0.326997802734375,0.0024434609804302454,-0.02015855349600315,0.00733038317412138
1781801335769005300,0.34300537109375,0.0006108652451075613,-0.021380282938480377,0.005497787147760391
1781801335785012700,0.3590126953125,0.001832595793530345,-0.021991148591041565,0.007941247895359993
1781801335801023000,0.37502294921875,0.0012217304902151227,-0.021380282938480377,0.007941247895359993
1781801335817026000,0.391026123046875,0.0024434609804302454,-0.021380282938480377,0.00733038317412138
1781801335833032400,0.407032470703125,0.0006108652451075613,-0.02015855349600315,0.007941247895359993
1781801335849041200,0.423041259765625,0.0024434609804302454,-0.021991148591041565,0.006108652334660292
1781801335865047800,0.4390478515625,0.001832595793530345,-0.02076941914856434,0.00855211354792118
1781801335881053700,0.4550537109375,0.003054326167330146,-0.021380282938480377,0.006719517521560192
1781801335897056500,0.471056396484375,0.0006108652451075613,-0.021991148591041565,0.006719517521560192
1781801335913064400,0.487064453125,0.0012217304902151227,-0.022602014243602753,0.006719517521560192
1781801335929076000,0.503075927734375,0.003054326167330146,-0.02076941914856434,0.00733038317412138
1781801335945086700,0.519086669921875,0.0012217304902151227,-0.019547687843441963,0.006719517521560192
1781801335961097700,0.53509765625,0.001832595793530345,-0.022602014243602753,0.00733038317412138
1781801335977115400,0.551115478515625,0.0012217304902151227,-0.022602014243602753,0.00855211354792118
1781801335993136000,0.56713623046875,0.0024434609804302454,-0.02076941914856434,0.006719517521560192
1781801336009157400,0.583157470703125,0.001832595793530345,-0.01771509274840355,0.00733038317412138
1781801336025173500,0.599173583984375,0.0012217304902151227,-0.022602014243602753,0.007941247895359993
1781801336041194200,0.6151943359375,0.0012217304902151227,-0.02321287989616394,0.006108652334660292
1781801336057204500,0.63120458984375,0.001832595793530345,-0.02015855349600315,0.006719517521560192
1781801336073220900,0.647220947265625,0.0012217304902151227,-0.019547687843441963,0.007941247895359993
1781801336089234400,0.663234375,0.0012217304902151227,-0.019547687843441963,0.006719517521560192
1781801336105243600,0.67924365234375,0.0006108652451075613,-0.019547687843441963,0.00855211354792118
1781801336121257200,0.69525732421875,0.003054326167330146,-0.02015855349600315,0.006719517521560192
1781801336137272000,0.71127197265625,0.001832595793530345,-0.02076941914856434,0.00855211354792118
1781801336153282300,0.7272822265625,0.001832595793530345,-0.02015855349600315,0.00855211354792118
1781801336169286700,0.74328662109375,0.0012217304902151227,-0.021991148591041565,0.006108652334660292
1781801336185295400,0.75929541015625,0.0024434609804302454,-0.02015855349600315,0.009773843921720982
1781801336201303000,0.775302978515625,0.00427605677396059,-0.018936822190880775,0.007941247895359993
1781801336217313500,0.7913134765625,0.0012217304902151227,-0.021380282938480377,0.00733038317412138
1781801336233324000,0.807323974609375,0.003054326167330146,-0.02015855349600315,0.00733038317412138
1781801336249339600,0.823339599609375,0.0012217304902151227,-0.018936822190880775,0.006719517521560192
1781801336265352700,0.839352783203125,0.0024434609804302454,-0.021991148591041565,0.006719517521560192
1781801336281362700,0.85536279296875,0.003054326167330146,-0.019547687843441963,0.007941247895359993
1781801336297376800,0.871376708984375,0.0024434609804302454,-0.02076941914856434,0.006719517521560192
1781801336313396000,0.88739599609375,0.0006108652451075613,-0.021991148591041565,0.006719517521560192
1781801336329414000,0.903413818359375,0.001832595793530345,-0.02015855349600315,0.009773843921720982
1781801336345430300,0.91943017578125,0.0024434609804302454,-0.02015855349600315,0.007941247895359993
1781801336361444000,0.935444091796875,0.0012217304902151227,-0.02076941914856434,0.006108652334660292
1781801336377453000,0.951453125,0.001832595793530345,-0.02015855349600315,0.00733038317412138
1781801336393467100,0.967467041015625,0.0024434609804302454,-0.021991148591041565,0.006108652334660292
1781801336409483800,0.98348388671875,0.0012217304902151227,-0.02076941914856434,0.007941247895359993
1781801336425497900,0.999497802734375,0.0024434609804302454,-0.021380282938480377,0.006719517521560192
1781801336441507800,1.0155078125,0.001832595793530345,-0.02076941914856434,0.007941247895359993
1781801336457512700,1.0315126953125,0.0024434609804302454,-0.021380282938480377,0.006719517521560192
1781801336481526800,1.05552685546875,0.0024434609804302454,-0.018325956538319588,0.00855211354792118
1781801336505546200,1.079546142578125,0.001832595793530345,-0.02015855349600315,0.007941247895359993
1781801336521567200,1.095567138671875,0.003054326167330146,-0.02015855349600315,0.009162978269159794
1781801336537585700,1.111585693359375,0.001832595793530345,-0.021991148591041565,0.007941247895359993
1781801336553598200,1.12759814453125,0.0012217304902151227,-0.021380282938480377,0.006719517521560192
1781801336569614300,1.1436142578125,0.0012217304902151227,-0.021991148591041565,0.007941247895359993
1781801336585625900,1.1596259765625,0.0024434609804302454,-0.02321287989616394,0.00855211354792118
1781801336601642200,1.175642333984375,0.0012217304902151227,-0.02076941914856434,0.009162978269159794
1781801336617660700,1.19166064453125,0.001832595793530345,-0.018936822190880775,0.006108652334660292
1781801336633676800,1.2076767578125,0.001832595793530345,-0.02015855349600315,0.007941247895359993
1781801336649697300,1.223697265625,0.001832595793530345,-0.021991148591041565,0.007941247895359993
1781801336665715000,1.23971484375,0.0024434609804302454,-0.02076941914856434,0.006108652334660292
1781801336681726700,1.255726806640625,0.0024434609804302454,-0.021380282938480377,0.007941247895359993
1781801336697742000,1.2717421875,0.0024434609804302454,-0.02015855349600315,0.00733038317412138
1781801336713760500,1.287760498046875,0.00366519158706069,-0.02015855349600315,0.00855211354792118
1781801336729778400,1.3037783203125,0.001832595793530345,-0.021380282938480377,0.009162978269159794
1781801336745797400,1.31979736328125,0.0024434609804302454,-0.02015855349600315,0.00733038317412138
1781801336761811700,1.335811767578125,0.001832595793530345,-0.02015855349600315,0.007941247895359993
1781801336777827300,1.351827392578125,0.003054326167330146,-0.02076941914856434,0.006719517521560192
1781801336793842700,1.3678427734375,0.0024434609804302454,-0.02076941914856434,0.00733038317412138
1781801336809854500,1.3838544921875,0.0006108652451075613,-0.02076941914856434,0.006719517521560192
1781801336825869800,1.399869873046875,0.0024434609804302454,-0.02015855349600315,0.00733038317412138
1781801336841888300,1.41588818359375,0.003054326167330146,-0.021380282938480377,0.006719517521560192
1781801336857905000,1.43190478515625,0.0024434609804302454,-0.019547687843441963,0.007941247895359993
1781801336873913300,1.447913330078125,0.001832595793530345,-0.02076941914856434,0.00855211354792118
1781801336889926400,1.463926513671875,0.0012217304902151227,-0.021991148591041565,0.00855211354792118
1781801336905934600,1.4799345703125,0.001832595793530345,-0.021380282938480377,0.006719517521560192
1781801336921943800,1.49594384765625,0.0012217304902151227,-0.021380282938480377,0.00855211354792118
1781801336937949700,1.51194970703125,0.0012217304902151227,-0.019547687843441963,0.00855211354792118
1781801336953962200,1.527962158203125,0.0012217304902151227,-0.021991148591041565,0.01038470957428217
1781801336969974800,1.543974853515625,0.001832595793530345,-0.02015855349600315,0.007941247895359993
1781801336985980200,1.559980224609375,0.001832595793530345,-0.02015855349600315,0.00733038317412138
1781801337001987800,1.57598779296875,0.0012217304902151227,-0.02076941914856434,0.00733038317412138
1781801337017989600,1.59198974609375,0.001832595793530345,-0.02015855349600315,0.006719517521560192
1781801337033990000,1.607989990234375,0.001832595793530345,-0.021991148591041565,0.007941247895359993
1781801337049996000,1.62399609375,0.0024434609804302454,-0.021380282938480377,0.00733038317412138
1781801337065998000,1.639998046875,0.001832595793530345,-0.019547687843441963,0.009162978269159794
1781801337082001000,1.6560009765625,0.0012217304902151227,-0.02015855349600315,0.006108652334660292
1781801337098012200,1.67201220703125,0.001832595793530345,-0.02076941914856434,0.006719517521560192
1781801337114021400,1.688021484375,0.001832595793530345,-0.02015855349600315,0.009162978269159794
1781801337130028000,1.704028076171875,0.003054326167330146,-0.02076941914856434,0.00733038317412138
1781801337146042000,1.7200419921875,0.001832595793530345,-0.02076941914856434,0.00733038317412138
1781801337162055200,1.73605517578125,0.0012217304902151227,-0.02076941914856434,0.00855211354792118
1781801337178065700,1.752065673828125,0.0012217304902151227,-0.021991148591041565,0.006719517521560192
1781801337194076200,1.768076171875,0.001832595793530345,-0.02076941914856434,0.00733038317412138
1781801337210082300,1.784082275390625,0.0006108652451075613,-0.021991148591041565,0.00855211354792118
1781801337226085400,1.80008544921875,0.001832595793530345,-0.02015855349600315,0.00855211354792118
1781801337242097200,1.81609716796875,0.001832595793530345,-0.021380282938480377,0.007941247895359993
1781801337258102500,1.8321025390625,0.001832595793530345,-0.02015855349600315,0.00855211354792118
1781801337274108700,1.848108642578125,0.001832595793530345,-0.021380282938480377,0.007941247895359993
1781801337290113800,1.86411376953125,0.001832595793530345,-0.02076941914856434,0.006719517521560192
1781801337306118000,1.880117919921875,0.0024434609804302454,-0.02076941914856434,0.007941247895359993
1781801337322118700,1.89611865234375,0.0024434609804302454,-0.019547687843441963,0.007941247895359993
1781801337338121500,1.91212158203125,0.001832595793530345,-0.021380282938480377,0.00733038317412138
1781801337354121200,1.928121337890625,0.001832595793530345,-0.021991148591041565,0.007941247895359993
1781801337370123500,1.94412353515625,0.001832595793530345,-0.018325956538319588,0.007941247895359993
1781801337386129000,1.96012890625,0.0012217304902151227,-0.02076941914856434,0.00733038317412138
1781801337402134300,1.97613427734375,0.001832595793530345,-0.02076941914856434,0.007941247895359993
1781801337418140200,1.99214013671875,0.001832595793530345,-0.02015855349600315,0.00733038317412138
1781801337434153200,2.0081533203125,0.003054326167330146,-0.02076941914856434,0.007941247895359993
1781801337450156800,2.02415673828125,0.001832595793530345,-0.02076941914856434,0.006108652334660292
1781801337466157600,2.040157470703125,0.001832595793530345,-0.019547687843441963,0.00855211354792118
1781801337482148000,2.056148193359375,0.003054326167330146,-0.019547687843441963,0.007941247895359993
1781801337498145500,2.0721455078125,0.001832595793530345,-0.022602014243602753,0.006108652334660292
1781801337514143000,2.08814306640625,0.0012217304902151227,-0.022602014243602753,0.006108652334660292
1781801337530141700,2.1041416015625,0.0012217304902151227,-0.021380282938480377,0.007941247895359993
1781801337546138400,2.120138427734375,0.0024434609804302454,-0.02076941914856434,0.009773843921720982
1781801337562134800,2.136134765625,0.0012217304902151227,-0.02015855349600315,0.00733038317412138
1781801337578135300,2.15213525390625,0.0012217304902151227,-0.02015855349600315,0.007941247895359993
1781801337594138000,2.16813818359375,0.0012217304902151227,-0.018936822190880775,0.006719517521560192
1781801337610135600,2.184135498046875,0.001832595793530345,-0.021991148591041565,0.009162978269159794
1781801337626137000,2.20013720703125,0.001832595793530345,-0.02321287989616394,0.00733038317412138
1781801337642140000,2.216139892578125,0.001832595793530345,-0.02076941914856434,0.007941247895359993
1781801337658139000,2.232138916015625,0.001832595793530345,-0.021380282938480377,0.006719517521560192
1781801337674141700,2.2481416015625,0.001832595793530345,-0.02015855349600315,0.006108652334660292
1781801337690150100,2.264150146484375,0.0012217304902151227,-0.021991148591041565,0.007941247895359993
1781801337706158600,2.28015869140625,0.0024434609804302454,-0.021380282938480377,0.006719517521560192
1781801337722165500,2.29616552734375,0.001832595793530345,-0.021991148591041565,0.00733038317412138
1781801337738165500,2.31216552734375,0.0006108652451075613,-0.02015855349600315,0.00733038317412138
1781801337754167800,2.328167724609375,0.0024434609804302454,-0.02015855349600315,0.007941247895359993
1781801337770172400,2.34417236328125,0.0012217304902151227,-0.02015855349600315,0.00733038317412138
1781801337786179800,2.360179931640625,0.001832595793530345,-0.02076941914856434,0.006719517521560192
1781801337802185200,2.376185302734375,0.0006108652451075613,-0.02076941914856434,0.00855211354792118
1781801337818184400,2.392184326171875,0.003054326167330146,-0.02076941914856434,0.006719517521560192
1781801337834184000,2.408183837890625,0.0024434609804302454,-0.02076941914856434,0.007941247895359993
1781801337850182400,2.424182373046875,0.0024434609804302454,-0.02076941914856434,0.006719517521560192
1781801337866183200,2.44018310546875,0.001832595793530345,-0.02015855349600315,0.007941247895359993
1781801337882184400,2.456184326171875,0.0024434609804302454,-0.021380282938480377,0.00855211354792118
1781801337898185000,2.47218505859375,0.0012217304902151227,-0.02015855349600315,0.007941247895359993
1781801337914188500,2.4881884765625,0.0024434609804302454,-0.02076941914856434,0.006719517521560192
1781801337930188800,2.504188720703125,0.0012217304902151227,-0.02076941914856434,0.006719517521560192
1781801337946189600,2.520189453125,0.0006108652451075613,-0.021991148591041565,0.009162978269159794
1781801337962189600,2.536189453125,0.0012217304902151227,-0.018936822190880775,0.007941247895359993
1781801337978193400,2.552193359375,0.0012217304902151227,-0.021380282938480377,0.007941247895359993
1781801337994204000,2.568203857421875,0.0012217304902151227,-0.02076941914856434,0.00733038317412138
1781801338010207500,2.58420751953125,0,-0.02076941914856434,0.006719517521560192
1781801338026210800,2.6002109375,0.003054326167330146,-0.04092797264456749,-0.0012217304902151227
1781801338042211000,2.616211181640625,0.012828170321881771,-0.060475658625364304,-0.006108652334660292
1781801338058212400,2.63221240234375,0.5760459303855896,0.02076941914856434,0.03298672288656235
1781801338074216200,2.64821630859375,1.550986886024475,-0.02871066704392433,0.02687807008624077
1781801338090217200,2.66421728515625,0.911410927772522,0.1765400618314743,0.1466076523065567
1781801338106212600,2.680212646484375,0.005497787147760391,0.019547687843441963,0.15027284622192383
1781801338122210000,2.6962099609375,-0.3885102868080139,-0.2968805134296417,0.13927727937698364
1781801338138207700,2.712207763671875,-0.23579397797584534,-0.1368338167667389,0.6114761233329773
1781801338154205400,2.728205322265625,-0.40256020426750183,-0.34697145223617554,0.8894197940826416
1781801338170213000,2.744213134765625,-0.8985827565193176,-0.7422012686729431,0.9682214260101318
1781801338186219300,2.76021923828125,-1.2260065078735352,-0.8326093554496765,1.2235630750656128
1781801338202225700,2.7762255859375,-1.493565559387207,-0.9822713136672974,1.6768250465393066
1781801338218229800,2.792229736328125,-1.1655309200286865,-0.7238753437995911,2.6676485538482666
1781801338234232800,2.80823291015625,-0.7574729323387146,-0.6230825781822205,3.592498540878296
1781801338250234600,2.824234619140625,-0.6432411074638367,-0.44837507605552673,4.798346519470215
1781801338266239500,2.840239501953125,-0.37140607833862305,-0.03298672288656235,6.139806747436523
1781801338282247200,2.8562470703125,0.18325957655906677,0.1466076523065567,7.040832996368408
1781801338298251300,2.872251220703125,0.21502456068992615,-0.06352998316287994,8.0530366897583
1781801338314251000,2.8882509765625,-0.750142514705658,0.5192354321479797,9.542325973510742
1781801338330251500,2.90425146484375,-0.7898487448692322,1.0213667154312134,9.678548812866211
1781801338346252300,2.920252197265625,-1.4043792486190796,1.5473216772079468,9.59669303894043
1781801338362253300,2.93625341796875,-2.3903157711029053,1.4862351417541504,9.076847076416016
1781801338378253600,2.952253662109375,-4.217413425445557,0.9908234477043152,7.345043659210205
1781801338394258200,2.968258056640625,-7.216762065887451,1.3750576972961426,6.657209396362305
1781801338410260000,2.984260009765625,-9.711535453796387,2.0134117603302,5.977927207946777
1781801338426258200,3.000258056640625,-9.999863624572754,2.7562239170074463,5.199685096740723
1781801338442253800,3.01625390625,-10.08905029296875,2.2241604328155518,5.050023078918457
1781801338458244900,3.032244873046875,-9.944886207580566,2.2577579021453857,4.256508827209473
1781801338474242600,3.04824267578125,-9.112887382507324,2.9107728004455566,3.3005049228668213
1781801338490237200,3.0642373046875,-7.291287422180176,2.5644123554229736,2.191784381866455
1781801338506237400,3.080237548828125,-4.734816551208496,1.6303993463516235,0.6969972252845764
1781801338522241800,3.09624169921875,-1.480737328529358,-0.2883284091949463,-0.4349360466003418
1781801338538244400,3.112244384765625,3.450166940689087,-3.8240163326263428,-0.9975429177284241
1781801338554244600,3.12824462890625,9.175806999206543,-9.312029838562012,0.32681289315223694
1781801338570242800,3.144242919921875,14.095715522766113,-13.638788223266602,2.4184155464172363
1781801338586237400,3.160237548828125,17.988759994506836,-15.999171257019043,5.276042938232422
1781801338602233600,3.176233642578125,20.014389038085938,-16.326595306396484,6.827030181884766
1781801338618227000,3.19222705078125,20.014389038085938,-14.773776054382324,6.484334468841553
1781801338634227500,3.2082275390625,20.014389038085938,-11.229536056518555,4.24429178237915
1781801338650222000,3.22422216796875,19.529972076416016,-7.307780742645264,1.8863518238067627
1781801338666220500,3.240220458984375,17.311920166015625,-3.793473243713379,0.34574973583221436
1781801338682224000,3.25622412109375,13.366952896118164,-0.6872233748435974,-1.6841554641723633
1781801338698230500,3.27223046875,7.850840091705322,1.8808541297912598,-3.0188961029052734
1781801338714232000,3.288232177734375,2.881451368331909,3.050661087036133,-3.00118088722229
1781801338730226700,3.304226806640625,-2.850908041000366,3.459329843521118,-2.8735101222991943
1781801338746221000,3.320220947265625,-7.290065765380859,3.428175687789917,-2.7342329025268555
1781801338762219000,3.336218994140625,-9.084177017211914,3.8533380031585693,-1.69148588180542
1781801338778218800,3.35221875,-10.905776977539062,4.977941036224365,0.7324274182319641
1781801338794216200,3.36821630859375,-12.871541976928711,4.290106773376465,3.5686748027801514
1781801338810216400,3.384216552734375,-14.917328834533691,4.343251705169678,4.6718974113464355
1781801338826218000,3.400218017578125,-17.941722869873047,4.640132427215576,4.682281970977783
1781801338850216400,3.424216552734375,-19.42612648010254,8.7787446975708,2.689028739929199
1781801338866217700,3.4402177734375,-17.139657974243164,9.019425392150879,2.4691174030303955
1781801338882221600,3.4562216796875,-12.845273971557617,6.198449611663818,1.2052371501922607
1781801338898225700,3.4722255859375,-8.18986988067627,3.1056389808654785,-1.7837265729904175
1781801338914228700,3.488228759765625,-2.596788167953491,-0.17592918872833252,-4.2479567527771
1781801338930230300,3.504230224609375,2.7543914318084717,-3.123353958129883,-5.8887410163879395
1781801338946236400,3.520236328125,6.742119789123535,-6.45379114151001,-6.938818454742432
1781801338962241000,3.536240966796875,10.032851219177246,-10.558805465698242,-7.986452102661133
1781801338978248000,3.552248046875,13.917953491210938,-14.891061782836914,-7.938804626464844
1781801338994251000,3.5682509765625,16.23313331604004,-16.93745994567871,-6.061005115509033
1781801339010255000,3.584255126953125,15.75054931640625,-16.21114158630371,-3.8600575923919678
1781801339026249700,3.600249755859375,13.136046409606934,-13.297314643859863,-3.4379496574401855
1781801339042248400,3.61624853515625,8.451931953430176,-8.822115898132324,-2.5308146476745605
1781801339058250200,3.632250244140625,1.2596040964126587,-2.5815165042877197,-0.2791654169559479
1781801339074249700,3.648249755859375,-4.677395343780518,4.077525615692139,3.8124098777770996
1781801339090258400,3.664258544921875,-7.864279270172119,8.69444465637207,7.111082553863525
1781801339106267600,3.680267578125,-9.588751792907715,9.837373733520508,8.951619148254395
1781801339122273800,3.696273681640625,-11.2472505569458,8.119621276855469,8.303491592407227
1781801339138274300,3.7122744140625,-12.011443138122559,6.80687141418457,7.244250774383545
1781801339154275800,3.72827587890625,-12.459207534790039,5.955325126647949,6.255870819091797
1781801339170284500,3.744284423828125,-12.734707832336426,6.543588638305664,5.965710163116455
1781801339186290000,3.7602900390625,-12.821450233459473,6.87345552444458,6.426302433013916
1781801339202296800,3.776296875,-12.189815521240234,8.250956535339355,7.227146625518799
1781801339218302700,3.792302734375,-10.52398681640625,7.472714424133301,7.583891868591309
1781801339234307300,3.808307373046875,-7.045108795166016,3.372586965560913,6.269920825958252
1781801339250316300,3.82431640625,-0.37690386176109314,-2.152078151702881,2.3512203693389893
1781801339266326500,3.840326416015625,7.401243209838867,-6.572909832000732,-2.0891592502593994
1781801339282333700,3.856333740234375,13.695598602294922,-9.944886207580566,-3.508810043334961
1781801339298340900,3.8723408203125,19.722394943237305,-14.031574249267578,-2.774549961090088
1781801339314346500,3.888346435546875,20.014389038085938,-16.756032943725586,0.20830504596233368
1781801339330351900,3.904351806640625,20.014389038085938,-15.71878433227539,2.749504566192627
1781801339346357800,3.920357666015625,20.014389038085938,-13.511728286743164,4.78429651260376
1781801339362364000,3.936364013671875,20.014389038085938,-10.885007858276367,5.076290130615234
1781801339378365000,3.952364990234375,16.057815551757812,-8.933293342590332,1.709811806678772
1781801339394367200,3.9683671875,2.8686232566833496,-2.725069761276245,-3.9547414779663086
1781801339410370300,3.984370361328125,-9.768345832824707,2.8955013751983643,-6.010303020477295
1781801339426373400,4.000373291015625,-14.699861526489258,4.091575622558594,-4.111733913421631
1781801339442377500,4.01637744140625,-14.694973945617676,2.275473117828369,-3.374419689178467
1781801339458385200,4.03238525390625,-13.103670120239258,0.1417207419872284,-5.9644880294799805
1781801339474391600,4.0483916015625,-12.057868957519531,-0.2272418737411499,-8.064642906188965
1781801339490397200,4.064397216796875,-11.49648380279541,1.3573426008224487,-8.63702392578125
1781801339506403000,4.080403076171875,-11.56856632232666,2.861292839050293,-7.414071559906006
1781801339522406100,4.09640625,-10.153191566467285,1.6267341375350952,-4.87898063659668
1781801339538407700,4.11240771484375,-6.7958760261535645,-1.817324161529541,-2.8484647274017334
1781801339554409700,4.12840966796875,-1.8771889209747314,-6.863681793212891,-4.365853786468506
1781801339570416000,4.144416015625,2.7152960300445557,-10.60034465789795,-6.635828971862793
1781801339586424800,4.1604248046875,7.340767860412598,-13.567928314208984,-9.32180404663086
1781801339602432000,4.176431884765625,9.690155029296875,-13.882523536682129,-11.35476303100586
1781801339618437000,4.19243701171875,8.715214729309082,-10.393260955810547,-12.810455322265625
1781801339634441500,4.20844140625,5.481293678283691,-3.2809572219848633,-11.811079978942871
1781801339650446300,4.2244462890625,5.462357044219971,0.08124507963657379,-10.646770477294922
1781801339666454500,4.24045458984375,7.983397960662842,-2.3347270488739014,-11.112860679626465
1781801339682457900,4.256457763671875,9.500176429748535,-6.3774333000183105,-11.219761848449707
1781801339698463200,4.272463134765625,8.225300788879395,-7.04022216796875,-9.932668685913086
1781801339714475500,4.2884755859375,7.0890913009643555,-6.035348415374756,-9.882577896118164
1781801339730481700,4.304481689453125,8.28638744354248,-5.07445764541626,-8.164824485778809
1781801339746493200,4.3204931640625,7.69384765625,-0.27061331272125244,-4.8087310791015625
1781801339762500600,4.33650048828125,5.732970237731934,4.250400543212891,-2.7177395820617676
1781801339778505700,4.352505615234375,5.3835554122924805,5.410433292388916,0.8240572214126587
1781801339794508500,4.368508544921875,5.877745151519775,5.077511787414551,4.497189998626709
1781801339810512000,4.384511962890625,5.786726474761963,4.988325595855713,6.562525272369385
1781801339826520000,4.40052001953125,5.265047550201416,5.317582130432129,8.200255393981934
1781801339842529500,4.416529541015625,5.638896942138672,3.941302537918091,9.185580253601074
1781801339858538500,4.43253857421875,6.458067417144775,2.232712507247925,11.010846138000488
1781801339874547700,4.448547607421875,5.365229606628418,3.718336820602417,11.955854415893555
1781801339890546000,4.4645458984375,2.5833492279052734,5.876523494720459,12.264341354370117
1781801339906545200,4.480545166015625,0.9902125597000122,5.6126298904418945,13.074959754943848
1781801339922548500,4.496548583984375,-0.11850785464048386,4.345695495605469,14.676648139953613
1781801339938558500,4.512558349609375,-1.567480206489563,3.584557294845581,15.58928108215332
1781801339954572500,4.528572509765625,-3.0555479526519775,2.378098487854004,15.683354377746582
1781801339970579200,4.5445791015625,-4.859433174133301,-0.16065755486488342,14.881288528442383
1781801339986580000,4.560580078125,-5.979759693145752,-2.6780333518981934,13.184915542602539
1781801340002588200,4.576588134765625,-7.1031413078308105,-4.301102161407471,11.58505916595459
1781801340018598400,4.592598388671875,-8.56860637664795,-4.783685684204102,8.904582977294922
1781801340034610400,4.6086103515625,-8.975442886352539,-4.935180187225342,5.493511199951172
1781801340050624500,4.62462451171875,-7.4128499031066895,-7.8264055252075195,2.1618521213531494
1781801340066633700,4.6406337890625,-4.163046836853027,-13.674829483032227,-2.1398608684539795
1781801340082644500,4.65664453125,1.086118459701538,-18.07977867126465,-6.542977809906006
1781801340098654200,4.672654296875,7.492873191833496,-20.014389038085938,-9.115942001342773
1781801340114661400,4.688661376953125,16.018108367919922,-20.014389038085938,-8.478199005126953
1781801340130660600,4.70466064453125,20.014389038085938,-20.014389038085938,-3.084869384765625
1781801340146665200,4.720665283203125,20.014389038085938,-20.014389038085938,-0.4954117238521576
1781801340162667000,4.7366669921875,16.779857635498047,-18.832365036010742,-2.0806069374084473
1781801340178671000,4.752671142578125,9.062186241149902,-10.509325981140137,-4.144109725952148
1781801340194675200,4.76867529296875,3.7317757606506348,-1.9871445894241333,-2.3157901763916016
1781801340210675700,4.78467578125,-1.037249207496643,7.411016941070557,2.001194477081299
1781801340226673700,4.800673583984375,-5.187467575073242,12.580769538879395,-0.44715335965156555
1781801340242671400,4.81667138671875,-6.430578231811523,13.158037185668945,-6.176458358764648
1781801340258671400,4.83267138671875,-6.790378093719482,12.30771255493164,-11.381030082702637
1781801340274672400,4.84867236328125,-6.327952861785889,11.12080192565918,-10.163576126098633
1781801340290674400,4.86467431640625,-4.318817138671875,9.891130447387695,-5.512447834014893
1781801340306680800,4.880680908203125,-3.573561668395996,8.932682037353516,-0.9242390990257263
1781801340322685400,4.896685546875,-3.7788124084472656,9.478796005249023,1.6181820631027222
1781801340338687700,4.912687744140625,-2.729956865310669,7.916813373565674,2.8942794799804688
1781801340354692600,4.928692626953125,1.3078625202178955,0.45204028487205505,2.7458393573760986
1781801340370693600,4.944693603515625,6.712798118591309,-4.751920700073242,2.726902484893799
1781801340386692900,4.96069287109375,9.957714080810547,-7.255246639251709,3.4373388290405273
1781801340402694100,4.976694091796875,10.525208473205566,-5.12515926361084,5.673105716705322
1781801340418699000,4.992698974609375,6.85085391998291,2.4966063499450684,6.009692192077637
1781801340434706400,5.00870654296875,1.6206254959106445,7.382917404174805,5.302921295166016
1781801340450714400,5.02471435546875,-4.781853199005127,8.165435791015625,4.726875305175781
1781801340466725400,5.040725341796875,-10.258871078491211,8.875261306762695,6.062837600708008
1781801340482730200,5.056730224609375,-14.498275756835938,10.02857494354248,7.613824367523193
1781801340498738700,5.07273876953125,-17.64362144470215,11.607661247253418,9.666942596435547
1781801340514740700,5.08874072265625,-17.893465042114258,9.313862800598145,9.0689058303833
1781801340530744600,5.10474462890625,-14.929546356201172,3.6529741287231445,4.943732261657715
1781801340546752000,5.120751953125,-5.420818328857422,-4.946176052093506,-0.7586946487426758
1781801340562759700,5.136759765625,8.993158340454102,-8.934514999389648,-1.6743816137313843
1781801340578759200,5.15275927734375,17.804889678955078,-13.217290878295898,0.6914994716644287
1781801340594765300,5.168765380859375,20.014389038085938,-17.052303314208984,6.891781806945801
1781801340610776000,5.184776123046875,19.22820472717285,-15.809192657470703,10.23382568359375
1781801340626777300,5.20077734375,12.271060943603516,-11.437840461730957,7.985230445861816
1781801340642784300,5.2167841796875,1.7892242670059204,-0.9046914577484131,2.328618288040161
1781801340658787600,5.23278759765625,-7.735997676849365,5.555819511413574,-1.6139060258865356
1781801340674798300,5.24879833984375,-13.625349044799805,7.952243804931641,-3.6224308013916016
1781801340690811400,5.264811279296875,-18.1530818939209,10.31873607635498,-3.698789119720459
1781801340706824700,5.28082470703125,-20.014389038085938,13.139711380004883,-1.9700404405593872
1781801340722833000,5.2968330078125,-20.014389038085938,11.5374116897583,-0.7812966704368591
1781801340738842000,5.312842041015625,-11.703567504882812,0.9205739498138428,-1.2944234609603882
1781801340754847500,5.328847412109375,5.348125457763672,-7.575950622558594,-0.30543261766433716
1781801340770853400,5.344853271484375,16.4041748046875,-13.011429786682129,3.293785333633423
1781801340786855000,5.36085498046875,20.014389038085938,-16.236797332763672,7.786088466644287
1781801340802862300,5.3768623046875,18.25937271118164,-12.80678939819336,8.745758056640625
1781801340818862000,5.392862060546875,10.090271949768066,-7.192327499389648,5.893016815185547
1781801340834855000,5.40885498046875,-2.7934868335723877,2.4416284561157227,0.10506882518529892
1781801340850854100,5.424854248046875,-11.879496574401855,7.271129131317139,-2.727513313293457
1781801340866858500,5.4408583984375,-16.127452850341797,8.607702255249023,-4.133114337921143
1781801340882862000,5.456862060546875,-19.200716018676758,10.209390640258789,-4.324925899505615
1781801340898864400,5.472864501953125,-18.97591781616211,7.208820819854736,-3.031113386154175
1781801340914867500,5.488867431640625,-9.768957138061523,-0.5094616413116455,-1.6090190410614014
1781801340930875100,5.504875244140625,7.912537574768066,-6.305351257324219,0.3090978264808655
1781801340946877200,5.520877197265625,18.542203903198242,-11.64186954498291,3.9785654544830322
1781801340962877700,5.536877685546875,19.917261123657227,-10.139752388000488,6.624222755432129
1781801340978876700,5.552876708984375,14.577688217163086,-7.9742350578308105,6.123924255371094
1781801340994877200,5.568877197265625,3.3994650840759277,-2.9413161277770996,2.9297096729278564
1781801341010880500,5.584880615234375,-6.980967998504639,3.4739906787872314,0.07941248267889023
1781801341026880300,5.60088037109375,-14.922826766967773,7.765929698944092,-1.483791708946228
1781801341042876200,5.616876220703125,-18.655214309692383,9.348681449890137,-2.3487768173217773
1781801341058873300,5.632873291015625,-19.849454879760742,8.02493667602539,-2.813645362854004
1781801341074866200,5.6488662109375,-13.848925590515137,2.9071075916290283,-1.5815300941467285
1781801341090865200,5.664865234375,-0.4306600093841553,-0.04337143152952194,0.3237585723400116
1781801341106865200,5.680865234375,12.161105155944824,-6.158743381500244,2.1545217037200928
1781801341122866200,5.6968662109375,17.162870407104492,-8.501411437988281,5.766567707061768
1781801341138866200,5.7128662109375,16.955785751342773,-6.858184337615967,7.619933128356934
1781801341154866700,5.72886669921875,11.861170768737793,-6.293133735656738,6.954700946807861
1781801341170874600,5.74487451171875,0.8454375267028809,-1.5741997957229614,3.3310482501983643
1781801341186881800,5.7608818359375,-8.225911140441895,4.7445902824401855,0.5693264007568359
1781801341202886100,5.77688623046875,-14.073113441467285,7.594887733459473,0.5204572081565857
1781801341218894300,5.792894287109375,-15.621657371520996,6.3358941078186035,0.4202753007411957
1781801341234897200,5.808897216796875,-14.164743423461914,4.285830497741699,-0.02932153269648552
1781801341250901500,5.824901611328125,-9.748798370361328,1.0348057746887207,0.5155702829360962
1781801341266902500,5.840902587890625,-0.34208452701568604,1.3170254230499268,2.842355966567993
1781801341282905600,5.856905517578125,8.584488868713379,-1.0512990951538086,4.38967752456665
1781801341298908700,5.87290869140625,14.86662769317627,-5.437922477722168,6.392094135284424
1781801341314915300,5.888915283203125,17.007709503173828,-6.078109264373779,8.611978530883789
1781801341330922000,5.904921875,16.670513153076172,-5.442198276519775,10.027963638305664
1781801341346923500,5.920923583984375,12.104294776916504,-5.520389080047607,9.164811134338379
1781801341362919200,5.936919189453125,3.6144895553588867,-2.8515188694000244,5.370727062225342
1781801341378916600,5.95291650390625,-4.2613959312438965,1.5668693780899048,0.4343251883983612
1781801341394923300,5.96892333984375,-10.084774017333984,4.4177775382995605,-2.5509731769561768
1781801341410934500,5.9849345703125,-12.830002784729004,5.662720680236816,-3.487429618835449
1781801341426947800,6.00094775390625,-14.18184757232666,6.315735816955566,-3.1166343688964844
1781801341442962700,6.016962646484375,-14.98330307006836,7.2766265869140625,-2.001194477081299
1781801341458979000,6.03297900390625,-14.906333923339844,7.970569610595703,-0.44287729263305664
1781801341474996200,6.048996337890625,-13.5697603225708,7.768373489379883,1.111163854598999
1781801341491016200,6.06501611328125,-11.5374116897583,7.285789966583252,2.320066213607788
1781801341507041300,6.081041259765625,-8.500801086425781,4.472755432128906,3.6480872631073
1781801341523065600,6.097065673828125,-4.186259746551514,1.3139711618423462,4.130059719085693
1781801341539086300,6.11308642578125,2.8539624214172363,-1.6157386302947998,3.5265250205993652
1781801341555105500,6.12910546875,10.167241096496582,-4.0017781257629395,0.7586946487426758
1781801341571126800,6.145126708984375,15.030339241027832,-6.191119194030762,-1.69148588180542
1781801341587153400,6.1611533203125,17.53427505493164,-6.792821407318115,-4.170988082885742
1781801341603178800,6.1771787109375,17.28382110595703,-5.359731674194336,-6.563746929168701
1781801341619202300,6.193202392578125,15.474438667297363,-1.633453607559204,-8.7787446975708
1781801341635223300,6.209223388671875,13.18186092376709,3.4990360736846924,-10.853242874145508
1781801341651246300,6.225246337890625,13.41521167755127,3.4831535816192627,-11.89965534210205
1781801341667275000,6.24127490234375,14.62105941772461,-1.1643091440200806,-11.175168991088867
1781801341683297000,6.257297119140625,13.318695068359375,-1.5375478267669678,-9.852034568786621
1781801341699323000,6.273322998046875,9.715200424194336,1.1435397863388062,-7.635815620422363
1781801341715355600,6.289355712890625,8.540507316589355,3.037221908569336,-4.062253952026367
1781801341731386400,6.305386474609375,8.100072860717773,3.2986724376678467,-1.338405728340149
1781801341747418600,6.321418701171875,6.608340263366699,4.315152168273926,-0.09468411654233932
1781801341763453000,6.337452880859375,5.944940567016602,4.740314483642578,0.5968153476715088
1781801341779485200,6.353485107421875,5.881410598754883,4.302934646606445,1.9969184398651123
1781801341795517200,6.36951708984375,5.253441333770752,4.152050971984863,4.23207426071167
1781801341811551500,6.385551513671875,4.488637924194336,3.768427610397339,6.42202615737915
1781801341827581400,6.40158154296875,4.234518051147461,3.494760036468506,8.407949447631836
1781801341891731000,6.46573095703125,2.2204952239990234,1.1465940475463867,12.63269329071045
1781801341907776800,6.48177685546875,1.235169529914856,0.6530149579048157,13.39627456665039
1781801341923815200,6.497815185546875,1.235169529914856,0.6530149579048157,13.39627456665039
1781801341939852800,6.513852783203125,1.235169529914856,0.6530149579048157,13.39627456665039
1781801341955894300,6.529894287109375,1.235169529914856,0.6530149579048157,13.39627456665039
1781801341971937500,6.5459375,1.235169529914856,0.6530149579048157,13.39627456665039
1781801341987983400,6.5619833984375,1.235169529914856,0.6530149579048157,13.39627456665039
1781801342004022300,6.578022216796875,1.235169529914856,0.6530149579048157,13.39627456665039
1781801342020057900,6.594057861328125,1.235169529914856,0.6530149579048157,13.39627456665039
1781801342036097300,6.61009716796875,-7.060380458831787,-1.3054190874099731,2.707965612411499
1781801342052138500,6.626138427734375,-5.075679302215576,-3.3127222061157227,0.6768386960029602
1781801342068180200,6.64218017578125,-1.5167783498764038,-4.67983865737915,-0.9327912330627441
1781801342084223700,6.6582236328125,2.010357618331909,-5.334075450897217,-2.3218986988067627
1781801342100265200,6.67426513671875,3.8594465255737305,-6.486778259277344,-3.9461894035339355
1781801342116307700,6.6903076171875,4.352415084838867,-6.607118606567383,-6.289468765258789
1781801342132359400,6.706359375,4.675562381744385,-5.990144729614258,-8.409781455993652
1781801342148407600,6.722407470703125,5.885686874389648,-5.645005702972412,-9.954660415649414
1781801342164458500,6.73845849609375,8.539896011352539,-6.921103000640869,-10.569801330566406
1781801342180515600,6.754515625,10.43602180480957,-7.919867992401123,-11.31017017364502
1781801342196569300,6.7705693359375,10.844690322875977,-4.7329840660095215,-11.454334259033203
1781801342212624400,6.786624267578125,10.879509925842285,-0.22663100063800812,-8.619919776916504
1781801342228677000,6.802677001953125,11.183110237121582,2.629163980484009,-4.704273223876953
1781801342244727800,6.818727783203125,11.167227745056152,2.948035717010498,-0.3549126982688904
1781801342260783000,6.834783203125,9.968709945678711,2.3634376525878906,3.1978795528411865
1781801342284865800,6.85886572265625,5.493511199951172,3.89732027053833,5.497176170349121
1781801342300918000,6.87491796875,2.532036542892456,3.2626311779022217,5.453804969787598
1781801342316979000,6.89097900390625,0.655458390712738,1.9614882469177246,6.013968467712402
1781801342333037600,6.90703759765625,-0.5393940210342407,1.2211196422576904,6.855740547180176
1781801342349098000,6.923097900390625,-1.4666874408721924,0.9034696817398071,8.585711479187012
1781801342365163300,6.939163330078125,-2.3603832721710205,1.10139000415802,9.850812911987305
1781801342381226800,6.955226806640625,-3.536298990249634,0.5381723046302795,10.305296897888184
1781801342405331500,6.97933154296875,-5.583308219909668,-1.4025466442108154,9.184969902038574
1781801342421400600,6.995400634765625,-6.49777364730835,-2.514932155609131,7.290065765380859
1781801342437466400,7.01146630859375,-6.543588638305664,-3.8368446826934814,5.717087745666504
1781801342453531400,7.027531494140625,-5.974873065948486,-6.093380928039551,5.179526329040527
1781801342477620000,7.051619873046875,-5.272377967834473,-11.274740219116211,3.3450980186462402
1781801342493685000,7.06768505859375,-4.017049789428711,-14.831808090209961,1.6658295392990112
1781801342509739300,7.0837392578125,-1.3139711618423462,-15.960076332092285,-0.8570439219474792
1781801342525805800,7.099805908203125,1.9828685522079468,-12.581380844116211,-4.930293560028076
1781801342541866500,7.115866455078125,4.423275470733643,-9.763459205627441,-8.368243217468262
1781801342557932500,7.1319326171875,6.462954521179199,-8.2747802734375,-10.561860084533691
1781801342573993500,7.147993408203125,7.870388031005859,-6.9834113121032715,-10.49588680267334
1781801342590058000,7.16405810546875,9.122050285339355,-4.882035255432129,-5.874080181121826
1781801342606122000,7.1801220703125,10.509936332702637,-2.1233675479888916,-2.194838762283325
1781801342622187300,7.196187255859375,11.896600723266602,1.292590856552124,-0.18875735998153687
1781801342638255400,7.21225537109375,12.57221794128418,5.170363426208496,1.4483615159988403
1781801342654322000,7.228322021484375,12.607647895812988,6.803817272186279,2.509434461593628
1781801342670391300,7.244391357421875,12.420112609863281,5.596136569976807,3.558900833129883
1781801342686457600,7.26045751953125,11.226481437683105,3.670689344406128,5.195408821105957
1781801342702522000,7.276522216796875,8.418944358825684,3.593109369277954,6.098267555236816
1781801342718592000,7.292592041015625,5.1685309410095215,2.6810874938964844,6.021298885345459
1781801342734663400,7.308663330078125,2.094046115875244,0.588263213634491,5.446474552154541
1781801342750731500,7.3247314453125,0.03787364438176155,-2.0219640731811523,5.677992343902588
1781801342766803200,7.34080322265625,-1.6377297639846802,-4.514294147491455,7.401243209838867
1781801342782876200,7.356876220703125,-3.6352591514587402,-5.196019649505615,8.830057144165039
1781801342798947000,7.372947021484375,-6.058561325073242,-4.9736647605896,9.46718978881836
1781801342815019800,7.389019775390625,-7.863668441772461,-4.674951553344727,9.969321250915527
1781801342831087900,7.405087890625,-9.063407897949219,-5.2888712882995605,9.365175247192383
1781801342847157200,7.4211572265625,-9.669997215270996,-4.749477386474609,8.14466667175293
1781801342871269600,7.44526953125,-9.216734886169434,-5.787948131561279,4.791016101837158
1781801342887347200,7.46134716796875,-5.673105716705322,-7.641313552856445,0.22907446324825287
1781801342903426600,7.477426513671875,-0.6114761233329773,-5.903401851654053,-2.9498682022094727
1781801342919509800,7.493509765625,4.019493103027344,-4.991379737854004,-5.780617713928223
1781801342935592700,7.5095927734375,7.039000034332275,-6.342002868652344,-7.260744094848633
1781801342951670800,7.5256708984375,8.978497505187988,-4.6688432693481445,-8.211250305175781
1781801342975793200,7.549793212890625,11.510534286499023,-0.35735616087913513,-8.130616188049316
1781801342991876000,7.5658759765625,13.54410457611084,0.09712757170200348,-5.970596790313721
1781801343007953400,7.581953369140625,14.275309562683105,0.48747047781944275,-3.413515090942383
1781801343024031000,7.598031005859375,12.493415832519531,3.6945130825042725,-3.587611675262451
1781801343040110600,7.614110595703125,9.960768699645996,6.897279262542725,-3.28523325920105
1781801343056191500,7.63019140625,8.21735954284668,7.4159040451049805,0.45875978469848633
1781801343072273000,7.64627294921875,6.194784641265869,7.39696741104126,3.701843500137329
1781801343088351500,7.6623515625,3.620598316192627,5.73419189453125,5.185635089874268
1781801343104432000,7.67843212890625,1.4850133657455444,2.0024163722991943,6.8465776443481445
1781801343120507100,7.694507080078125,-0.09040805697441101,-1.179580807685852,8.278446197509766
1781801343144620500,7.71862060546875,-2.4440717697143555,-4.433049201965332,10.457402229309082
1781801343160698600,7.73469873046875,-3.6560285091400146,-3.5888333320617676,11.67363452911377
1781801343176777000,7.75077685546875,-4.207028865814209,-0.9926560521125793,11.867279052734375
1781801343192855300,7.766855224609375,-3.905261516571045,0.3830125033855438,11.222816467285156
1781801343208929800,7.7829296875,-3.081815242767334,-1.1679743528366089,11.079874038696289
1781801343225000200,7.799000244140625,-2.043344259262085,-3.9437460899353027,10.64127254486084
1781801343241070800,7.81507080078125,-0.6835582256317139,-6.337727069854736,8.847161293029785
1781801343257138200,7.83113818359375,0.8014551997184753,-8.260119438171387,6.844134330749512
1781801343281252600,7.855252685546875,3.8148534297943115,-12.696834564208984,5.776341915130615
1781801343297327400,7.871327392578125,4.933958530426025,-12.362690925598145,5.716476917266846
1781801343313400800,7.88740087890625,4.860654830932617,-7.921700477600098,4.678006172180176
1781801343329467400,7.90346728515625,5.359120845794678,-3.6664133071899414,2.4391849040985107
1781801343345536800,7.919536865234375,6.29863166809082,-1.0256427526474,-2.3652701377868652
1781801343361606400,7.9356064453125,7.312057018280029,1.0067058801651,-7.950411319732666
1781801343377680400,7.951680419921875,8.668177604675293,2.6316075325012207,-12.183096885681152
1781801343393751300,7.967751220703125,10.070113182067871,4.714046955108643,-14.817147254943848
1781801343409826000,7.983825927734375,11.617435455322266,6.866125583648682,-16.7016658782959
1781801343425902600,7.999902587890625,12.855048179626465,7.271739959716797,-17.671110153198242
1781801343441981400,8.0159814453125,12.855048179626465,8.31570816040039,-15.632652282714844
1781801343458064400,8.032064453125,12.063366889953613,7.845952987670898,-11.702345848083496
1781801343474152400,8.04815234375,9.98459243774414,7.122077941894531,-7.004180908203125
1781801343490235000,8.06423486328125,7.239364147186279,6.842912673950195,-3.9510765075683594
1781801343506314200,8.080314208984374,4.652349472045898,3.8734965324401855,-2.7763824462890625
1781801343522394600,8.09639453125,2.2742512226104736,1.730581283569336,-0.21563543379306793
1781801343538475000,8.11247509765625,-0.12400564551353455,0.9950994849205017,2.6981918811798096
1781801343554554000,8.12855419921875,-0.8607091307640076,0.9865473508834839,4.860654830932617
1781801343570626600,8.14462646484375,-0.3701843321323395,0.3597996234893799,6.613838195800781
1781801343586702300,8.160702392578125,-0.19547687470912933,0.5106833577156067,9.385334014892578
1781801343602779600,8.176779541015625,-0.788016140460968,0.6090326309204102,11.595443725585938
1781801343618852900,8.192852783203126,-2.395813465118408,0.06169738993048668,13.35229206085205
1781801343634930400,8.208930419921876,-3.847229242324829,-0.6951646208763123,14.553864479064941
1781801343651002400,8.22500244140625,-3.8179078102111816,-1.6713273525238037,14.678481101989746
1781801343667072800,8.24107275390625,-2.937040090560913,-0.024434609338641167,14.195897102355957
1781801343683137300,8.25713720703125,-1.9755382537841797,0.9327912330627441,13.211182594299316
1781801343699203800,8.273203857421874,-1.1551461219787598,-0.10323622822761536,11.81474494934082
1781801343715271400,8.289271484375,-0.646295428276062,-3.101362943649292,9.922284126281738
1781801343731338500,8.30533837890625,0.12889257073402405,-5.7855048179626465,6.7738847732543945
1781801343747406000,8.321406005859375,0.9804387092590332,-7.353595733642578,2.9107728004455566
1781801343763477800,8.337477783203125,1.3335188627243042,-7.954687118530273,1.0506882667541504
1781801343779551500,8.353551513671874,1.7562376260757446,-6.783658504486084,-0.26083946228027344
1781801343795634000,8.369634033203125,2.0702223777770996,-4.805066108703613,-1.5515977144241333
1781801343811707600,8.385707763671874,2.6334400177001953,-3.0579915046691895,-3.192992687225342
1781801343827779000,8.401779052734375,3.971845865249634,-2.147191286087036,-5.90767765045166
1781801343843846400,8.417846435546876,5.619960308074951,-1.5595389604568481,-9.561873435974121
1781801343867952600,8.44195263671875,8.850826263427734,-0.07941248267889023,-14.523932456970215
1781801343884022800,8.458022705078125,10.450071334838867,1.5027284622192383,-17.255109786987305
1781801343900094000,8.474093994140626,10.465953826904297,2.8661797046661377,-18.286251068115234
1781801343916162600,8.49016259765625,9.52094554901123,5.283984184265137,-14.016914367675781
1781801343932225300,8.506225341796876,8.503854751586914,5.13126802444458,-6.3688812255859375
1781801343948289000,8.5222890625,6.384152889251709,4.5460591316223145,-2.183232307434082
1781801343964355600,8.53835546875,3.6163222789764404,3.5417966842651367,0.35246923565864563
1781801343980418300,8.554418212890624,0.7855727076530457,1.3817771673202515,1.813048005104065
1781801343996486700,8.570486572265626,-0.9578366875648499,-1.1655309200286865,2.233934164047241
1781801344012554200,8.58655419921875,-1.4672982692718506,-3.263853073120117,2.5864033699035645
1781801344028625200,8.602625244140626,-1.4550809860229492,-3.411682367324829,2.5558602809906006
1781801344044693800,8.61869384765625,-1.6181820631027222,-2.6395487785339355,1.9168951511383057
1781801344060758500,8.634758544921874,-1.8008307218551636,-1.7763961553573608,1.7647897005081177
1781801344076824300,8.65082421875,-1.8069393634796143,-0.7538077235221863,1.9920315742492676
1781801344092890400,8.666890380859375,-1.577254056930542,0.588263213634491,2.163073778152466
1781801344108954400,8.682954345703125,-1.398881435394287,1.6420058012008667,2.1264219284057617
1781801344125017600,8.699017578125,-1.4465289115905762,2.1392500400543213,1.788002610206604
1781801344141080600,8.71508056640625,-1.5919147729873657,1.9993619918823242,1.2247848510742188
1781801344157145600,8.7311455078125,-1.6957619190216064,1.2376129627227783,0.645684540271759
1781801344173212700,8.747212646484375,-1.6664403676986694,0.1270599663257599,0.23945917189121246
1781801344189275400,8.763275390625,-1.5192219018936157,-0.6866125464439392,0.15821409225463867
1781801344205339000,8.7793388671875,-1.1985175609588623,-1.2687671184539795,0.22602014243602753
1781801344221400000,8.795400146484376,-0.7678576111793518,-1.3750576972961426,0.31642818450927734
1781801344237459700,8.811459716796875,-0.4031710624694824,-1.0971139669418335,0.3023782968521118
1781801344253524200,8.827524169921874,-0.19120082259178162,-0.5760459303855896,0.1514945775270462
1781801344269591300,8.84359130859375,-0.14294247329235077,0.12522737681865692,-0.039706241339445114
1781801344285658600,8.85965869140625,-0.18448130786418915,0.5070181488990784,-0.25961771607398987
1781801344301723000,8.875722900390626,-0.2571742534637451,0.6023131608963013,-0.5253441333770752
1781801344317789200,8.8917890625,-0.30970868468284607,0.5247332453727722,-0.6426302194595337
1781801344333851600,8.9078515625,-0.38606682419776917,0.42088615894317627,-0.5558874011039734
1781801344349909500,8.923909423828125,-0.4447098970413208,0.26572638750076294,-0.304210901260376
1781801344365968400,8.939968505859374,-0.44654250144958496,-0.04337143152952194,0.01038470957428217
1781801344382027000,8.956027099609376,-0.4807509481906891,-0.5949827432632446,0.34636059403419495
1781801344398084000,8.972083984375,-0.4031710624694824,-1.0696250200271606,0.5283984541893005
1781801344414147300,8.988147216796875,-0.28527405858039856,-1.282817006111145,0.607200026512146
1781801344438239000,9.012239013671875,-0.342695415019989,-1.1227703094482422,0.46547931432724
1781801344454295000,9.028294921875,-0.323147714138031,-0.7678576111793518,0.27977627515792847
1781801344470352400,9.044352294921875,-0.21013765037059784,-0.7483099102973938,0.23518311977386475
1781801344486412800,9.060412841796875,-0.10018189996480942,-0.827111542224884,0.24007004499435425
1781801344502476800,9.076476806640626,-0.0354301854968071,-0.8484918475151062,0.1918116807937622
1781801344518541000,9.092541015625,-0.009773843921720982,-0.8991936445236206,0.022602014243602753
1781801344534604000,9.10860400390625,-0.07391469180583954,-0.2626720666885376,-0.28466320037841797
1781801344550667000,9.1246669921875,-0.3830125033855438,0.021991148591041565,-0.5528330206871033
1781801344566727700,9.140727783203126,-0.6249151229858398,0.43249258399009705,-0.7049384713172913
1781801344582792700,9.156792724609375,-0.6805039048194885,0.5577199459075928,-0.5839871764183044
1781801344598859300,9.172859375,-0.6310238242149353,0.2076941877603531,-0.3274237811565399
1781801344614917000,9.188917236328125,-0.3995058834552765,-0.16310101747512817,-0.07147123664617538
1781801344630976000,9.20497607421875,-0.18875735998153687,-0.3439171314239502,0.08674286305904388
1781801344647031300,9.22103125,-0.09834930300712585,-0.4453207552433014,0.15454891324043274
1781801344663090400,9.23709033203125,-0.06475171446800232,-0.5082398653030396,0.17959438264369965
1781801344679144400,9.25314453125,-0.08429940044879913,-0.494189977645874,0.21441370248794556
1781801344695204600,9.26920458984375,-0.08246681094169617,-0.36224308609962463,0.25473082065582275
1781801344711269600,9.28526953125,-0.07941248267889023,-0.15454891324043274,0.2590068578720093
1781801344727323400,9.301323486328124,-0.09285151958465576,0.01771509274840355,0.2015855312347412
1781801344743382300,9.31738232421875,-0.10323622822761536,0.15454891324043274,0.10812314599752426
1781801344759442200,9.333442138671876,-0.0861319974064827,0.2620611786842346,0.039095375686883926
1781801344775501300,9.349501220703125,-0.10873401165008545,0.24190263450145721,0.021380282938480377
1781801344791558400,9.365558349609374,-0.10384709388017654,0.22052235901355743,0.05375614017248154
1781801344807616300,9.3816162109375,-0.07941248267889023,0.28649580478668213,0.09651670604944229
1781801344823671600,9.397671630859374,-0.07452555745840073,0.33169981837272644,0.16798794269561768
1781801344839729700,9.413729736328126,-0.06963863968849182,0.37140607833862305,0.21013765037059784
1781801344855791900,9.4297919921875,-0.0012217304902151227,0.3927863538265228,0.18875735998153687
1781801344871844600,9.4458447265625,0.013439035043120384,0.3634648323059082,0.0757472887635231
1781801344887899600,9.461899658203125,0.02015855349600315,0.27611109614372253,-0.02321287989616394
1781801344903948500,9.477948486328126,-0.004886921960860491,-0.31520646810531616,0.2791654169559479
1781801344919999500,9.49399951171875,0.06291911751031876,-0.637132465839386,0.22357667982578278
1781801344936051700,9.5100517578125,0.02932153269648552,-0.23335053026676178,-0.14355333149433136
1781801344952108300,9.5261083984375,-0.11789698898792267,0.11362093687057495,-0.3188716471195221
1781801344968166100,9.542166259765626,-0.2883284091949463,0.3274237811565399,-0.2168571650981903
1781801344984223200,9.55822314453125,-0.3237585723400116,0.1869247704744339,-0.14049901068210602
1781801345000277000,9.574277099609375,-0.17043140530586243,0.12034045159816742,-0.2669481039047241
1781801345016336400,9.59033642578125,-0.14905111491680145,0.03237585723400116,-0.42577308416366577
1781801345032396500,9.606396484375,-0.13500121235847473,0.1875356286764145,-0.6126978397369385
1781801345048459000,9.622458984375,-0.019547687843441963,0.23457226157188416,-0.48747047781944275
1781801345064513300,9.63851318359375,0.07024950534105301,-0.2278527319431305,-0.010995574295520782
1781801345080568300,9.654568359375,0.23029619455337524,-0.8735373020172119,0.6719517707824707
1781801345096626700,9.670626708984376,0.14782938361167908,-1.218676209449768,0.6719517707824707
1781801345112685600,9.686685546875,0.0354301854968071,-0.8411614298820496,0.07635815441608429
1781801345128753200,9.702753173828125,-0.17531833052635193,-0.2687807083129883,-0.35674530267715454
1781801345144818200,9.718818115234376,-0.3286454975605011,0.2932153046131134,-0.44837507605552673
1781801345160879900,9.7348798828125,-0.3274237811565399,0.40744712948799133,-0.22113321721553802
1781801345176941800,9.75094189453125,-0.15271630883216858,0.14844025671482086,0.05925392732024193
1781801345193009700,9.767009765625,-0.036041051149368286,-0.15454891324043274,0.16432274878025055
1781801345209078800,9.783078857421875,-0.00366519158706069,-0.3677408695220947,0.12950342893600464
1781801345225145300,9.799145263671875,-0.016493361443281174,-0.45631635189056396,0.04703662544488907
1781801345241209900,9.8152099609375,-0.013439035043120384,-0.4184426963329315,0.0403171069920063
1781801345257272800,9.83127294921875,-0.0024434609804302454,-0.30115658044815063,0.12095131725072861
1781801345273339600,9.847339599609375,0.0024434609804302454,-0.1814269721508026,0.22296582162380219
1781801345289414000,9.863413818359374,-0.006108652334660292,-0.06963863968849182,0.28649580478668213
1781801345305486300,9.879486328125,-0.05314527451992035,-0.036651913076639175,0.28955012559890747
1781801345321559000,9.89555908203125,-0.08918632566928864,-0.027488935738801956,0.26083946228027344
1781801345337629700,9.911629638671876,-0.09896016865968704,-0.08857546001672745,0.24007004499435425
1781801345353701000,9.927701171875,-0.09957103431224823,-0.22602014243602753,0.2431243658065796
1781801345369768000,9.943767822265626,-0.07391469180583954,-0.2370157092809677,0.24617868661880493
1781801345385837300,9.95983740234375,-0.07208210229873657,-0.2125810980796814,0.23396138846874237
1781801345401906200,9.97590625,-0.09896016865968704,-0.1472185254096985,0.21991148591041565
1781801345417973000,9.991972900390625,-0.12461651116609573,-0.09896016865968704,0.1973094791173935
1781801345434046200,10.008046142578126,-0.11972958594560623,-0.08674286305904388,0.21563543379306793
1781801345450116400,10.024116455078126,-0.11178833991289139,-0.039706241339445114,0.2370157092809677
1781801345466191000,10.040191162109375,-0.04703662544488907,-0.07635815441608429,0.2828305959701538
1781801345482270700,10.056270751953125,0.006108652334660292,-0.033597588539123535,0.375071257352829
1781801345498342000,10.072341796875,0.006108652334660292,-0.033597588539123535,0.375071257352829
1781801345514414000,10.0884140625,0.006108652334660292,-0.033597588539123535,0.375071257352829
1781801345530484700,10.104484619140624,0.006108652334660292,-0.033597588539123535,0.375071257352829
1781801345546566400,10.12056640625,0.006108652334660292,-0.033597588539123535,0.375071257352829
1781801345562646300,10.136646240234375,0.006108652334660292,-0.033597588539123535,0.375071257352829
1781801345578717700,10.1527177734375,0.006108652334660292,-0.033597588539123535,0.375071257352829
1781801345594785500,10.16878564453125,0.006108652334660292,-0.033597588539123535,0.375071257352829
1781801345610857200,10.184857177734376,-0.03481931984424591,0.30115658044815063,0.1966986060142517
1781801345626932000,10.200931884765625,0.00733038317412138,0.21930062770843506,0.18509216606616974
1781801345643005400,10.21700537109375,0.010995574295520782,0.2168571650981903,0.2174680233001709
1781801345659081700,10.233081787109375,-0.07941248267889023,0.19792033731937408,0.23151792585849762
1781801345675155000,10.249155029296874,-0.16065755486488342,0.08735372871160507,0.1869247704744339
1781801345691229200,10.265229248046875,-0.18325957655906677,-0.11545353382825851,0.0959058403968811
1781801345707306500,10.281306396484375,-0.17837265133857727,-0.27488934993743896,-0.010995574295520782
1781801345723384800,10.297384765625,-0.13316862285137177,-0.3237585723400116,-0.0659734457731247
1781801345739457000,10.31345703125,-0.08979719132184982,-0.2889392673969269,-0.09040805697441101
1781801345755526400,10.3295263671875,-0.08918632566928864,-0.27000242471694946,-0.10934487730264664
1781801345771593200,10.34559326171875,-0.13072516024112701,-0.323147714138031,-0.14844025671482086
1781801345787666700,10.361666748046876,-0.15027284622192383,-0.2981022298336029,-0.1368338167667389
1781801345803741000,10.377740966796875,-0.12767083942890167,-0.27550023794174194,-0.09651670604944229
1781801345819809800,10.393809814453125,-0.10018189996480942,-0.3225368559360504,-0.056810468435287476
1781801345835877000,10.409877197265626,-0.09407325088977814,-0.3543018400669098,-0.05497787147760391
1781801345851940900,10.42594091796875,-0.07819075137376785,-0.2981022298336029,-0.06902777403593063
1781801345868004600,10.442004638671875,-0.014049900695681572,-0.2779437005519867,-0.10506882518529892
1781801345884069400,10.4580693359375,0.036041051149368286,-0.2565633952617645,-0.11789698898792267
1781801345900136200,10.47413623046875,0.05192354694008827,-0.2015855312347412,-0.1313360333442688
1781801345916203500,10.49020361328125,0.04581489413976669,-0.22296582162380219,-0.12889257073402405
1781801345932270300,10.506270263671874,0.018936822190880775,-0.24495697021484375,-0.12400564551353455
1781801345948335400,10.52233544921875,-0.02382374368607998,-0.2767219543457031,-0.11362093687057495
1781801345964394800,10.538394775390625,-0.059864792972803116,-0.3689626157283783,-0.1062905490398407
1781801345980455200,10.554455078125,-0.09896016865968704,-0.504574716091156,-0.08674286305904388
1781801345996513300,10.57051318359375,-0.1362229436635971,-0.6438519954681396,-0.09896016865968704
1781801346012567300,10.5865673828125,-0.16920967400074005,-0.7116580009460449,-0.14538592100143433
1781801346028624100,10.6026240234375,-0.23457226157188416,-0.7929030656814575,-0.26939156651496887
1781801346044683300,10.618683349609375,-0.2528982162475586,-0.9327912330627441,-0.4550946056842804
1781801346060743200,10.6347431640625,-0.2681698501110077,-1.1459832191467285,-0.6126978397369385
1781801346076808700,10.65080859375,-0.2168571650981903,-1.4672982692718506,-0.8442157506942749
1781801346092872000,10.666871826171874,-0.2119702398777008,-1.6560556888580322,-1.0421360731124878
1781801346108933400,10.682933349609375,-0.2370157092809677,-1.6236798763275146,-1.0592403411865234
1781801346124991700,10.69899169921875,-0.2681698501110077,-1.3274102210998535,-1.0128145217895508
1781801346141056500,10.715056396484375,-0.3023782968521118,-0.8759807348251343,-0.8460483551025391
1781801346157111800,10.73111181640625,-0.3139847218990326,-0.6059783101081848,-0.598647952079773
1781801346173165300,10.747165283203126,-0.33108896017074585,-0.4294382631778717,-0.3579670190811157
1781801346189218600,10.763218505859374,-0.3530801236629486,-0.27550023794174194,-0.2565633952617645
1781801346205274400,10.7792744140625,-0.2919935882091522,-0.11728613078594208,-0.21868975460529327
1781801346221324500,10.795324462890624,-0.1771509200334549,0.006719517521560192,-0.16249015927314758
1781801346237376000,10.8113759765625,-0.027488935738801956,0.039706241339445114,-0.08979719132184982
1781801346253429200,10.82742919921875,0.07757988572120667,-0.0024434609804302454,-0.06475171446800232
1781801346269477000,10.84347705078125,0.09162978827953339,-0.054367005825042725,-0.08796459436416626
1781801346285527600,10.859527587890625,0.045204028487205505,-0.04214970022439957,-0.10873401165008545
1781801346301580300,10.875580322265625,-0.016493361443281174,-0.025045474991202354,-0.11972958594560623
1781801346317634600,10.891634521484375,-0.0354301854968071,-0.001832595793530345,-0.12828169763088226
1781801346333689600,10.907689697265624,-0.025656340643763542,-0.0403171069920063,-0.08307767659425735
1781801346349740500,10.923740478515626,-0.004886921960860491,-0.11423180252313614,0.003054326167330146
1781801346365789400,10.93978955078125,0.022602014243602753,-0.06475171446800232,0.11972958594560623
1781801346381836800,10.9558369140625,0.03848451003432274,0.07880161702632904,0.23335053026676178
1781801346397885700,10.9718857421875,0.01466076634824276,0.18570303916931152,0.2736676335334778
1781801346413937200,10.987937255859375,-0.0006108652451075613,0.192422553896904,0.2382374405860901
1781801346429990400,11.003990478515625,0.0012217304902151227,0.1417207419872284,0.15332718193531036
1781801346446045400,11.02004541015625,0.015271631069481373,0.06169738993048668,0.08307767659425735
1781801346486192600,11.060192626953125,-0.005497787147760391,0.00427605677396059,-0.009773843921720982
1781801346502249200,11.076249267578126,-0.013439035043120384,0.054367005825042725,-0.02015855349600315
1781801346518303200,11.09230322265625,-0.018936822190880775,0.06963863968849182,-0.04214970022439957
1781801346542396700,11.116396728515625,-0.02382374368607998,0.07208210229873657,-0.10812314599752426
1781801346646811000,11.220810791015625,-0.0555887371301651,0.15454891324043274,0.16554448008537292
1781801346662875100,11.236875244140625,-0.03176499158143997,-0.030543262138962746,0.010995574295520782
1781801346678940400,11.2529404296875,-0.004886921960860491,-0.2321287989616394,-0.12461651116609573
1781801346703036000,11.277035888671875,0.054367005825042725,-0.06963863968849182,-0.1569923609495163
1781801346719096600,11.2930966796875,0.0403171069920063,-0.01771509274840355,-0.1264491081237793
1781801346735157200,11.3091572265625,0.03237585723400116,0.09346238523721695,-0.027488935738801956
1781801346751223600,11.3252236328125,0.01710422709584236,0.26450464129447937,0.16371189057826996
