time,seconds_elapsed,z,y,x
1781789731417255700,0.135255615234375,0.00427605677396059,-0.021991148591041565,0.006719517521560192
1781789731433266000,0.151265869140625,0.00427605677396059,-0.021991148591041565,0.006719517521560192
1781789731449265700,0.167265625,0.00427605677396059,-0.021991148591041565,0.006719517521560192
1781789731465270300,0.183270263671875,0.00427605677396059,-0.021991148591041565,0.006719517521560192
1781789731481274600,0.199274658203125,0.00427605677396059,-0.021991148591041565,0.006719517521560192
1781789731497279200,0.215279296875,0.00427605677396059,-0.021991148591041565,0.006719517521560192
1781789731513283600,0.23128369140625,0.00427605677396059,-0.021991148591041565,0.006719517521560192
1781789731529284900,0.247284912109375,0.00366519158706069,-0.021380282938480377,0.006719517521560192
1781789731545283600,0.26328369140625,0.0024434609804302454,-0.021991148591041565,0.006719517521560192
1781789731561280500,0.279280517578125,0.00427605677396059,-0.02076941914856434,0.00733038317412138
1781789731577280500,0.295280517578125,0.00366519158706069,-0.021991148591041565,0.00733038317412138
1781789731593280300,0.3112802734375,0.003054326167330146,-0.022602014243602753,0.007941247895359993
1781789731609277000,0.32727685546875,0.00366519158706069,-0.021380282938480377,0.004886921960860491
1781789731625278000,0.34327783203125,0.00366519158706069,-0.02015855349600315,0.00733038317412138
1781789731641282600,0.359282470703125,0.00366519158706069,-0.021991148591041565,0.006108652334660292
1781789731657283600,0.37528369140625,0.00427605677396059,-0.022602014243602753,0.006719517521560192
1781789731673283800,0.391283935546875,0.00427605677396059,-0.021380282938480377,0.006719517521560192
1781789731689285600,0.40728564453125,0.0024434609804302454,-0.021380282938480377,0.00855211354792118
1781789731705288200,0.4232880859375,0.003054326167330146,-0.02076941914856434,0.009162978269159794
1781789731721293000,0.43929296875,0.00366519158706069,-0.022602014243602753,0.006719517521560192
1781789731737299200,0.45529931640625,0.00366519158706069,-0.021991148591041565,0.00733038317412138
1781789731753301800,0.4713017578125,0.00366519158706069,-0.022602014243602753,0.00733038317412138
1781789731769308700,0.48730859375,0.0024434609804302454,-0.02076941914856434,0.006719517521560192
1781789731785307400,0.503307373046875,0.00427605677396059,-0.02321287989616394,0.006719517521560192
1781789731801307400,0.519307373046875,0.003054326167330146,-0.021380282938480377,0.006108652334660292
1781789731817305300,0.535305419921875,0.003054326167330146,-0.021991148591041565,0.00855211354792118
1781789731833308400,0.551308349609375,0.003054326167330146,-0.021380282938480377,0.00733038317412138
1781789731849307600,0.5673076171875,0.00427605677396059,-0.022602014243602753,0.006719517521560192
1781789731865310200,0.583310302734375,0.003054326167330146,-0.02076941914856434,0.007941247895359993
1781789731881308700,0.59930859375,0.003054326167330146,-0.021991148591041565,0.005497787147760391
1781789731897303300,0.61530322265625,0.00366519158706069,-0.02321287989616394,0.006719517521560192
1781789731913292500,0.63129248046875,0.003054326167330146,-0.021991148591041565,0.00733038317412138
1781789731929285000,0.64728515625,0.00366519158706069,-0.02076941914856434,0.006108652334660292
1781789731945279200,0.663279296875,0.003054326167330146,-0.021380282938480377,0.00733038317412138
1781789731961275000,0.67927490234375,0.0024434609804302454,-0.021991148591041565,0.005497787147760391
1781789731977266400,0.695266357421875,0.00366519158706069,-0.02076941914856434,0.006719517521560192
1781789731993256700,0.711256591796875,0.003054326167330146,-0.021991148591041565,0.006719517521560192
1781789732009246200,0.72724609375,0.00427605677396059,-0.021991148591041565,0.006719517521560192
1781789732025234400,0.743234375,0.00366519158706069,-0.021380282938480377,0.009773843921720982
1781789732041225200,0.75922509765625,0.003054326167330146,-0.02382374368607998,0.006719517521560192
1781789732057213200,0.775213134765625,0.00366519158706069,-0.02015855349600315,0.00733038317412138
1781789732073200600,0.79120068359375,0.003054326167330146,-0.02321287989616394,0.00855211354792118
1781789732089193700,0.80719384765625,0.00366519158706069,-0.021380282938480377,0.00733038317412138
1781789732105180200,0.82318017578125,0.0024434609804302454,-0.021380282938480377,0.00733038317412138
1781789732121170400,0.83917041015625,0.004886921960860491,-0.021380282938480377,0.00733038317412138
1781789732137160200,0.85516015625,0.0024434609804302454,-0.018936822190880775,0.006719517521560192
1781789732153159200,0.8711591796875,0.003054326167330146,-0.021380282938480377,0.006108652334660292
1781789732169152300,0.88715234375,0.00366519158706069,-0.02076941914856434,0.00855211354792118
1781789732185145300,0.903145263671875,0.00366519158706069,-0.02015855349600315,0.00733038317412138
1781789732201143600,0.9191435546875,0.00366519158706069,-0.019547687843441963,0.00855211354792118
1781789732217138400,0.935138427734375,0.003054326167330146,-0.018936822190880775,0.007941247895359993
1781789732233131500,0.951131591796875,0.00366519158706069,-0.02015855349600315,0.00855211354792118
1781789732249121300,0.967121337890625,0.00366519158706069,-0.021991148591041565,0.006719517521560192
1781789732265111800,0.98311181640625,0.00366519158706069,-0.021991148591041565,0.00855211354792118
1781789732281099000,0.99909912109375,0.00427605677396059,-0.022602014243602753,0.00733038317412138
1781789732297087500,1.01508740234375,0.00366519158706069,-0.022602014243602753,0.006719517521560192
1781789732313070800,1.03107080078125,0.00366519158706069,-0.021991148591041565,0.00733038317412138
1781789732329056800,1.047056884765625,0.00366519158706069,-0.02015855349600315,0.006108652334660292
1781789732345044200,1.063044189453125,0.00366519158706069,-0.02321287989616394,0.00855211354792118
1781789732361029600,1.079029541015625,0.00427605677396059,-0.021991148591041565,0.007941247895359993
1781789732377018400,1.095018310546875,0.001832595793530345,-0.021380282938480377,0.006108652334660292
1781789732393010200,1.11101025390625,0.00366519158706069,-0.02076941914856434,0.006108652334660292
1781789732409001200,1.127001220703125,0.00366519158706069,-0.02321287989616394,0.006108652334660292
1781789732424992000,1.142991943359375,0.0024434609804302454,-0.02076941914856434,0.00855211354792118
1781789732440983000,1.158983154296875,0.00366519158706069,-0.02015855349600315,0.00733038317412138
1781789732456969200,1.17496923828125,0.00366519158706069,-0.02015855349600315,0.00855211354792118
1781789732472954600,1.19095458984375,0.003054326167330146,-0.021380282938480377,0.00733038317412138
1781789732488940800,1.20694091796875,0.00427605677396059,-0.021991148591041565,0.00733038317412138
1781789732504923100,1.222923095703125,0.003054326167330146,-0.02076941914856434,0.00733038317412138
1781789732520906500,1.238906494140625,0.003054326167330146,-0.02076941914856434,0.007941247895359993
1781789732536892700,1.254892578125,0.0024434609804302454,-0.021991148591041565,0.00733038317412138
1781789732552876300,1.270876220703125,0.003054326167330146,-0.02076941914856434,0.007941247895359993
1781789732568864500,1.286864501953125,0.003054326167330146,-0.022602014243602753,0.00733038317412138
1781789732584860000,1.30285986328125,0.00366519158706069,-0.02015855349600315,0.007941247895359993
1781789732600852200,1.318852294921875,0.00366519158706069,-0.021380282938480377,0.007941247895359993
1781789732616844300,1.33484423828125,0.00366519158706069,-0.021991148591041565,0.007941247895359993
1781789732632829700,1.35082958984375,0.003054326167330146,-0.02076941914856434,0.007941247895359993
1781789732648820000,1.366820068359375,0.00366519158706069,-0.02076941914856434,0.006108652334660292
1781789732664808000,1.382807861328125,0.004886921960860491,-0.021991148591041565,0.00733038317412138
1781789732680793600,1.398793701171875,0.00366519158706069,-0.021991148591041565,0.00733038317412138
1781789732696781000,1.414781005859375,0.003054326167330146,-0.02015855349600315,0.007941247895359993
1781789732712773400,1.4307734375,0.0024434609804302454,-0.02015855349600315,0.00733038317412138
1781789732728765400,1.446765380859375,0.00366519158706069,-0.02076941914856434,0.006719517521560192
1781789732744763400,1.462763427734375,0.00366519158706069,-0.02076941914856434,0.006108652334660292
1781789732760762600,1.4787626953125,0.003054326167330146,-0.02015855349600315,0.005497787147760391
1781789732776758500,1.494758544921875,0.003054326167330146,-0.022602014243602753,0.007941247895359993
1781789732792751600,1.510751708984375,0.00366519158706069,-0.019547687843441963,0.009162978269159794
1781789732808741600,1.52674169921875,0.00366519158706069,-0.021991148591041565,0.006719517521560192
1781789732824733000,1.54273291015625,0.00366519158706069,-0.022602014243602753,0.00733038317412138
1781789732840729900,1.558729736328125,0.00366519158706069,-0.021380282938480377,0.009162978269159794
1781789732856726300,1.574726318359375,0.003054326167330146,-0.022602014243602753,0.006719517521560192
1781789732872716500,1.590716552734375,0.00366519158706069,-0.021991148591041565,0.00855211354792118
1781789732888702700,1.60670263671875,0.00366519158706069,-0.019547687843441963,0.007941247895359993
1781789732904690700,1.622690673828125,0.0024434609804302454,-0.021991148591041565,0.006108652334660292
1781789732920681000,1.638680908203125,0.003054326167330146,-0.02015855349600315,0.006719517521560192
1781789732936676900,1.6546767578125,0.00366519158706069,-0.021991148591041565,0.00855211354792118
1781789732952670200,1.670670166015625,0.00366519158706069,-0.02015855349600315,0.00855211354792118
1781789732968668000,1.68666796875,0.00427605677396059,-0.021380282938480377,0.006719517521560192
1781789732984662000,1.702662109375,0.003054326167330146,-0.021380282938480377,0.006108652334660292
1781789733000650800,1.718650634765625,0.00366519158706069,-0.021380282938480377,0.006719517521560192
1781789733016640800,1.734640869140625,0.003054326167330146,-0.021380282938480377,0.006719517521560192
1781789733032632300,1.75063232421875,0.003054326167330146,-0.021380282938480377,0.007941247895359993
1781789733048618000,1.766617919921875,0.003054326167330146,-0.021380282938480377,0.007941247895359993
1781789733064611800,1.78261181640625,0.00366519158706069,-0.021380282938480377,0.00733038317412138
1781789733080605700,1.798605712890625,0.00366519158706069,-0.021991148591041565,0.00733038317412138
1781789733096602000,1.81460205078125,0.00366519158706069,-0.022602014243602753,0.006108652334660292
1781789733112601300,1.830601318359375,0.00366519158706069,-0.019547687843441963,0.00855211354792118
1781789733128601900,1.846601806640625,0.00366519158706069,-0.021380282938480377,0.006108652334660292
1781789733144596500,1.862596435546875,0.003054326167330146,-0.022602014243602753,0.00733038317412138
1781789733160589300,1.87858935546875,0.003054326167330146,-0.021991148591041565,0.006719517521560192
1781789733176580900,1.894580810546875,0.00427605677396059,-0.021380282938480377,0.00733038317412138
1781789733192574700,1.91057470703125,0.0024434609804302454,-0.022602014243602753,0.007941247895359993
1781789733208566800,1.92656689453125,0.001832595793530345,-0.02015855349600315,0.006719517521560192
1781789733224562000,1.94256201171875,0.00427605677396059,-0.021991148591041565,0.006719517521560192
1781789733240557800,1.958557861328125,0.00366519158706069,-0.021380282938480377,0.009773843921720982
1781789733256554000,1.974553955078125,0.00366519158706069,-0.021380282938480377,0.00733038317412138
1781789733272548400,1.99054833984375,0.00366519158706069,-0.02076941914856434,0.006108652334660292
1781789733288544000,2.0065439453125,0.00366519158706069,-0.021991148591041565,0.006719517521560192
1781789733304543000,2.02254296875,0.004886921960860491,-0.022602014243602753,0.00733038317412138
1781789733328536800,2.046536865234375,0.003054326167330146,-0.02015855349600315,0.00855211354792118
1781789733344535300,2.062535400390625,0.00427605677396059,-0.022602014243602753,0.006719517521560192
1781789733360526000,2.078526123046875,0.004886921960860491,-0.021991148591041565,0.00733038317412138
1781789733376518400,2.094518310546875,0.00366519158706069,-0.021991148591041565,0.007941247895359993
1781789733392511700,2.11051171875,0.00366519158706069,-0.021991148591041565,0.00733038317412138
1781789733408501200,2.126501220703125,0.00366519158706069,-0.021991148591041565,0.007941247895359993
1781789733424497400,2.142497314453125,0.00427605677396059,-0.021991148591041565,0.00733038317412138
1781789733440489700,2.15848974609375,0.00427605677396059,-0.02076941914856434,0.007941247895359993
1781789733456478000,2.17447802734375,0.00366519158706069,-0.022602014243602753,0.007941247895359993
1781789733472468200,2.19046826171875,0.003054326167330146,-0.021991148591041565,0.00855211354792118
1781789733488455000,2.206454833984375,0.00427605677396059,-0.022602014243602753,0.007941247895359993
1781789733504444200,2.222444091796875,0.003054326167330146,-0.02015855349600315,0.00733038317412138
1781789733520432000,2.23843212890625,0.00366519158706069,-0.02076941914856434,0.006719517521560192
1781789733536423400,2.25442333984375,0.00366519158706069,-0.02076941914856434,0.00733038317412138
1781789733552413000,2.270412841796875,0.003054326167330146,-0.021380282938480377,0.009162978269159794
1781789733568407300,2.2864072265625,0.0024434609804302454,-0.021380282938480377,0.00733038317412138
1781789733584404200,2.302404296875,0.003054326167330146,-0.02076941914856434,0.00733038317412138
1781789733600397000,2.31839697265625,0.003054326167330146,-0.02015855349600315,0.007941247895359993
1781789733616384800,2.334384765625,0.00366519158706069,-0.02015855349600315,0.00733038317412138
1781789733632378400,2.35037841796875,0.00427605677396059,-0.021991148591041565,0.00733038317412138
1781789733648368600,2.36636865234375,0.00366519158706069,-0.02015855349600315,0.009773843921720982
1781789733664362000,2.382362060546875,0.00427605677396059,-0.021380282938480377,0.006108652334660292
1781789733680354800,2.398354736328125,0.0024434609804302454,-0.021991148591041565,0.007941247895359993
1781789733696352300,2.414352294921875,0.00427605677396059,-0.021991148591041565,0.00733038317412138
1781789733712345300,2.430345458984375,0.003054326167330146,-0.019547687843441963,0.006719517521560192
1781789733728332500,2.44633251953125,0.0024434609804302454,-0.022602014243602753,0.006719517521560192
1781789733744324400,2.462324462890625,0.00366519158706069,-0.021380282938480377,0.007941247895359993
1781789733760313600,2.478313720703125,0.0024434609804302454,-0.02015855349600315,0.007941247895359993
1781789733776306400,2.494306396484375,0.003054326167330146,-0.02076941914856434,0.00855211354792118
1781789733792299000,2.510299072265625,0.003054326167330146,-0.02076941914856434,0.00855211354792118
1781789733808286200,2.5262861328125,0.00427605677396059,-0.021380282938480377,0.007941247895359993
1781789733824273400,2.5422734375,0.0024434609804302454,-0.021991148591041565,0.006719517521560192
1781789733840265000,2.558264892578125,0.003054326167330146,-0.022602014243602753,0.00733038317412138
1781789733856257500,2.574257568359375,0.003054326167330146,-0.019547687843441963,0.007941247895359993
1781789733872250600,2.590250732421875,0.00427605677396059,-0.02076941914856434,0.00855211354792118
1781789733888247800,2.606247802734375,0.003054326167330146,-0.018936822190880775,0.006719517521560192
1781789733904245200,2.622245361328125,0.003054326167330146,-0.021380282938480377,0.00733038317412138
1781789733920244700,2.63824462890625,0.00366519158706069,-0.021991148591041565,0.007941247895359993
1781789733936241000,2.654240966796875,0.001832595793530345,-0.021380282938480377,0.007941247895359993
1781789733952234200,2.670234130859375,0.0024434609804302454,-0.021991148591041565,0.006719517521560192
1781789733968229000,2.68622900390625,0.00366519158706069,-0.022602014243602753,0.007941247895359993
1781789733984217000,2.702217041015625,0.00366519158706069,-0.021380282938480377,0.007941247895359993
1781789734000210200,2.718210205078125,0.00366519158706069,-0.02076941914856434,0.00733038317412138
1781789734016201200,2.734201171875,0.004886921960860491,-0.021991148591041565,0.00733038317412138
1781789734032192300,2.750192138671875,0.003054326167330146,-0.02076941914856434,0.007941247895359993
1781789734048184000,2.76618408203125,0.00366519158706069,-0.021380282938480377,0.006719517521560192
1781789734064176600,2.7821767578125,0.00427605677396059,-0.02015855349600315,0.007941247895359993
1781789734080174800,2.7981748046875,0.003054326167330146,-0.021991148591041565,0.00733038317412138
1781789734096169200,2.814169189453125,0.00366519158706069,-0.022602014243602753,0.007941247895359993
1781789734112168200,2.830168212890625,0.00366519158706069,-0.02076941914856434,0.009773843921720982
1781789734128158200,2.846158203125,0.00366519158706069,-0.02015855349600315,0.00855211354792118
1781789734144145400,2.8621455078125,0.00366519158706069,-0.021380282938480377,0.00733038317412138
1781789734160135400,2.878135498046875,0.003054326167330146,-0.02015855349600315,0.007941247895359993
1781789734176120300,2.894120361328125,0.003054326167330146,-0.022602014243602753,0.00733038317412138
1781789734192107300,2.910107177734375,0.00427605677396059,-0.021380282938480377,0.009162978269159794
1781789734208094500,2.926094482421875,0.003054326167330146,-0.021380282938480377,0.00733038317412138
1781789734224082700,2.942082763671875,0.003054326167330146,-0.021380282938480377,0.00733038317412138
1781789734240072400,2.958072509765625,0.003054326167330146,-0.02076941914856434,0.00733038317412138
1781789734256061700,2.974061767578125,0.00366519158706069,-0.021991148591041565,0.007941247895359993
1781789734272049700,2.990049560546875,0.003054326167330146,-0.02015855349600315,0.00733038317412138
1781789734288036000,3.0060361328125,0.00366519158706069,-0.02076941914856434,0.007941247895359993
1781789734304027600,3.022027587890625,0.00366519158706069,-0.02015855349600315,0.009162978269159794
1781789734320013800,3.038013916015625,0.00366519158706069,-0.02076941914856434,0.006719517521560192
1781789734335988700,3.05398876953125,0.003054326167330146,-0.02076941914856434,0.006108652334660292
1781789734351969000,3.069968994140625,0.0024434609804302454,-0.018936822190880775,0.00855211354792118
1781789734367947300,3.085947265625,0.00427605677396059,-0.022602014243602753,0.00733038317412138
1781789734383924000,3.101924072265625,0.00366519158706069,-0.02076941914856434,0.00733038317412138
1781789734399907800,3.117907958984375,0.0024434609804302454,-0.02076941914856434,0.006719517521560192
1781789734415886600,3.133886474609375,0.00366519158706069,-0.02076941914856434,0.006719517521560192
1781789734431867600,3.14986767578125,0.00366519158706069,-0.021380282938480377,0.006719517521560192
1781789734447856600,3.165856689453125,0.00366519158706069,-0.021991148591041565,0.00733038317412138
1781789734463843000,3.181843017578125,0.003054326167330146,-0.021991148591041565,0.006108652334660292
1781789734479828500,3.197828369140625,0.0024434609804302454,-0.021991148591041565,0.00733038317412138
1781789734495816000,3.21381591796875,0.00366519158706069,-0.02076941914856434,0.00733038317412138
1781789734511805200,3.22980517578125,0.00366519158706069,-0.02076941914856434,0.006719517521560192
1781789734527790800,3.245790771484375,0.00366519158706069,-0.02076941914856434,0.006108652334660292
1781789734543780600,3.261780517578125,0.003054326167330146,-0.022602014243602753,0.007941247895359993
1781789734559765000,3.277764892578125,0.00366519158706069,-0.02076941914856434,0.005497787147760391
1781789734575754000,3.29375390625,0.00427605677396059,-0.022602014243602753,0.007941247895359993
1781789734591744300,3.309744140625,0.00427605677396059,-0.021380282938480377,0.00855211354792118
1781789734607737600,3.325737548828125,0.003054326167330146,-0.02015855349600315,0.00855211354792118
1781789734623729000,3.34172900390625,0.00427605677396059,-0.021380282938480377,0.006108652334660292
1781789734639722200,3.35772216796875,0.00366519158706069,-0.02321287989616394,0.007941247895359993
1781789734655711200,3.373711181640625,0.003054326167330146,-0.021991148591041565,0.006719517521560192
1781789734671703000,3.389703125,0.00366519158706069,-0.021380282938480377,0.00855211354792118
1781789734687688000,3.40568798828125,0.00427605677396059,-0.02321287989616394,0.00733038317412138
1781789734703676000,3.421676025390625,0.0024434609804302454,-0.02076941914856434,0.007941247895359993
1781789734719658200,3.437658203125,0.00366519158706069,-0.02015855349600315,0.006108652334660292
1781789734735642000,3.45364208984375,0.00366519158706069,-0.021380282938480377,0.006719517521560192
1781789734751628300,3.469628173828125,0.0024434609804302454,-0.021380282938480377,0.007941247895359993
1781789734767617000,3.485616943359375,0.00427605677396059,-0.022602014243602753,0.005497787147760391
1781789734783603000,3.50160302734375,0.003054326167330146,-0.022602014243602753,0.00733038317412138
1781789734799591400,3.51759130859375,0.00366519158706069,-0.02015855349600315,0.006108652334660292
1781789734815578600,3.53357861328125,0.003054326167330146,-0.02076941914856434,0.00855211354792118
1781789734831565000,3.54956494140625,0.00366519158706069,-0.021380282938480377,0.006719517521560192
1781789734847555000,3.56555517578125,0.003054326167330146,-0.021991148591041565,0.00855211354792118
1781789734863546400,3.58154638671875,0.003054326167330146,-0.02076941914856434,0.007941247895359993
1781789734879533300,3.597533203125,0.0024434609804302454,-0.021380282938480377,0.00733038317412138
1781789734895520300,3.613520263671875,0.00427605677396059,-0.021991148591041565,0.00733038317412138
1781789734911509500,3.629509521484375,0.00366519158706069,-0.021380282938480377,0.005497787147760391
1781789734927496700,3.64549658203125,0.003054326167330146,-0.021991148591041565,0.005497787147760391
1781789734943485000,3.66148486328125,0.003054326167330146,-0.02076941914856434,0.00733038317412138
1781789734959472000,3.67747216796875,0.004886921960860491,-0.02076941914856434,0.00733038317412138
1781789734975464000,3.6934638671875,0.003054326167330146,-0.02015855349600315,0.006719517521560192
1781789734991454700,3.709454833984375,0.00366519158706069,-0.021380282938480377,0.006108652334660292
1781789735007443500,3.725443359375,0.00427605677396059,-0.02076941914856434,0.009162978269159794
1781789735023436000,3.74143603515625,0.00366519158706069,-0.021991148591041565,0.009162978269159794
1781789735039425500,3.757425537109375,0.00427605677396059,-0.02076941914856434,0.007941247895359993
1781789735055423500,3.773423583984375,0.00427605677396059,-0.02076941914856434,0.007941247895359993
1781789735071418600,3.789418701171875,0.003054326167330146,-0.022602014243602753,0.007941247895359993
1781789735087412200,3.805412109375,0.00366519158706069,-0.022602014243602753,0.007941247895359993
1781789735103408000,3.821408203125,0.00366519158706069,-0.021991148591041565,0.00733038317412138
1781789735119401500,3.8374013671875,0.003054326167330146,-0.02076941914856434,0.007941247895359993
1781789735135391500,3.8533916015625,0.003054326167330146,-0.02015855349600315,0.00733038317412138
1781789735151382800,3.8693828125,0.00366519158706069,-0.02076941914856434,0.00855211354792118
1781789735167375400,3.885375244140625,0.00427605677396059,-0.021991148591041565,0.00733038317412138
1781789735183367700,3.90136767578125,0.00366519158706069,-0.02076941914856434,0.00855211354792118
1781789735207350800,3.925350830078125,0.00366519158706069,-0.02076941914856434,0.00733038317412138
1781789735223341300,3.94134130859375,0.00366519158706069,-0.02076941914856434,0.00733038317412138
1781789735239328000,3.957327880859375,0.00427605677396059,-0.022602014243602753,0.00733038317412138
1781789735255317800,3.97331787109375,0.00366519158706069,-0.02076941914856434,0.006719517521560192
1781789735271304400,3.989304443359375,0.00366519158706069,-0.021380282938480377,0.006719517521560192
1781789735287295200,4.005295166015625,0.00427605677396059,-0.021380282938480377,0.00733038317412138
1781789735303287300,4.021287353515625,0.00366519158706069,-0.021380282938480377,0.007941247895359993
1781789735319275500,4.037275634765625,0.00366519158706069,-0.02076941914856434,0.006719517521560192
1781789735335263200,4.05326318359375,0.001832595793530345,-0.021380282938480377,0.007941247895359993
1781789735351245600,4.06924560546875,0.003054326167330146,-0.022602014243602753,0.006719517521560192
1781789735367229700,4.085229736328125,0.0024434609804302454,-0.021991148591041565,0.007941247895359993
1781789735383215900,4.1012158203125,0.003054326167330146,-0.022602014243602753,0.006719517521560192
1781789735399195600,4.117195556640625,0.0024434609804302454,-0.02076941914856434,0.006108652334660292
1781789735415181600,4.133181640625,0.003054326167330146,-0.021991148591041565,0.006719517521560192
1781789735431163600,4.14916357421875,0.00366519158706069,-0.021380282938480377,0.006108652334660292
1781789735447155200,4.1651552734375,0.0024434609804302454,-0.02076941914856434,0.00733038317412138
1781789735463150000,4.181150146484375,0.0024434609804302454,-0.02076941914856434,0.007941247895359993
1781789735479145000,4.19714501953125,0.00427605677396059,-0.02076941914856434,0.007941247895359993
1781789735495139800,4.213139892578125,0.003054326167330146,-0.021380282938480377,0.007941247895359993
1781789735511132400,4.22913232421875,0.003054326167330146,-0.022602014243602753,0.006719517521560192
1781789735527120400,4.245120361328125,0.004886921960860491,-0.021380282938480377,0.00733038317412138
1781789735543109600,4.261109619140625,0.00366519158706069,-0.019547687843441963,0.007941247895359993
1781789735559095000,4.277094970703125,0.00427605677396059,-0.021380282938480377,0.007941247895359993
1781789735575081700,4.293081787109375,0.001832595793530345,-0.021380282938480377,0.00855211354792118
1781789735591067100,4.309067138671875,0.00366519158706069,-0.021380282938480377,0.004886921960860491
1781789735607047400,4.32504736328125,0.00427605677396059,-0.02076941914856434,0.006719517521560192
1781789735623028000,4.341028076171875,0.001832595793530345,-0.02076941914856434,0.007941247895359993
1781789735639008000,4.357008056640625,0.0024434609804302454,-0.02321287989616394,0.006108652334660292
1781789735654994700,4.37299462890625,0.00366519158706069,-0.022602014243602753,0.006719517521560192
1781789735670982700,4.388982666015625,0.00366519158706069,-0.021991148591041565,0.00733038317412138
1781789735686974700,4.404974609375,0.0024434609804302454,-0.02076941914856434,0.007941247895359993
1781789735702958000,4.4209580078125,0.003054326167330146,-0.021380282938480377,0.007941247895359993
1781789735718943700,4.43694384765625,0.00366519158706069,-0.02015855349600315,0.00733038317412138
1781789735734937600,4.4529375,0.003054326167330146,-0.021380282938480377,0.00733038317412138
1781789735750926000,4.468926025390625,0.00427605677396059,-0.021380282938480377,0.006719517521560192
1781789735766914800,4.484914794921875,0.00366519158706069,-0.02015855349600315,0.005497787147760391
1781789735782897700,4.500897705078125,0.00427605677396059,-0.02076941914856434,0.00855211354792118
1781789735798887200,4.51688720703125,0.0024434609804302454,-0.021380282938480377,0.007941247895359993
1781789735814880300,4.53288037109375,0.003054326167330146,-0.021991148591041565,0.006719517521560192
1781789735830867200,4.5488671875,0.003054326167330146,-0.021380282938480377,0.006719517521560192
1781789735846853000,4.56485302734375,0.003054326167330146,-0.018936822190880775,0.007941247895359993
1781789735862845200,4.58084521484375,0.00366519158706069,-0.02015855349600315,0.00733038317412138
1781789735878839300,4.59683935546875,0.00366519158706069,-0.021991148591041565,0.006719517521560192
1781789735894832600,4.61283251953125,0.004886921960860491,-0.02382374368607998,0.009162978269159794
1781789735910826000,4.628825927734375,0.003054326167330146,-0.02015855349600315,0.004886921960860491
1781789735926820600,4.644820556640625,0.003054326167330146,-0.022602014243602753,0.007941247895359993
1781789735942814000,4.66081396484375,0.003054326167330146,-0.02076941914856434,0.007941247895359993
1781789735958802700,4.676802734375,0.00366519158706069,-0.019547687843441963,0.006719517521560192
1781789735974790000,4.692789794921875,0.003054326167330146,-0.018936822190880775,0.00733038317412138
1781789735990775600,4.708775634765625,0.003054326167330146,-0.021380282938480377,0.007941247895359993
1781789736006767600,4.724767578125,0.00366519158706069,-0.019547687843441963,0.00733038317412138
1781789736022763000,4.740762939453125,0.00366519158706069,-0.022602014243602753,0.00733038317412138
1781789736038755800,4.756755859375,0.003054326167330146,-0.02015855349600315,0.009162978269159794
1781789736054753000,4.7727529296875,0.00366519158706069,-0.02076941914856434,0.006108652334660292
1781789736070747100,4.7887470703125,0.003054326167330146,-0.022602014243602753,0.00733038317412138
1781789736086742300,4.8047421875,0.00366519158706069,-0.02321287989616394,0.00733038317412138
1781789736102740500,4.820740478515625,0.003054326167330146,-0.021380282938480377,0.009162978269159794
1781789736118737000,4.83673681640625,0.00427605677396059,-0.019547687843441963,0.00733038317412138
1781789736134739200,4.8527392578125,0.00366519158706069,-0.021991148591041565,0.00733038317412138
1781789736150742300,4.8687421875,0.00366519158706069,-0.02321287989616394,0.006719517521560192
1781789736166736000,4.88473583984375,0.00427605677396059,-0.02076941914856434,0.006719517521560192
1781789736182729000,4.90072900390625,0.00427605677396059,-0.02015855349600315,0.00855211354792118
1781789736198720300,4.91672021484375,0.003054326167330146,-0.02076941914856434,0.009162978269159794
1781789736214716400,4.93271630859375,0.003054326167330146,-0.02321287989616394,0.00733038317412138
1781789736230709800,4.948709716796875,0.003054326167330146,-0.02076941914856434,0.007941247895359993
1781789736246696000,4.964696044921875,0.001832595793530345,-0.019547687843441963,0.007941247895359993
1781789736262682000,4.98068212890625,0.004886921960860491,-0.021380282938480377,0.00733038317412138
1781789736278674700,4.9966748046875,0.00366519158706069,-0.021380282938480377,0.007941247895359993
1781789736294672000,5.012671875,0.00366519158706069,-0.021380282938480377,0.006719517521560192
1781789736310668500,5.02866845703125,0.00427605677396059,-0.02015855349600315,0.009162978269159794
1781789736326659800,5.044659912109375,0.003054326167330146,-0.019547687843441963,0.006719517521560192
1781789736342651400,5.0606513671875,0.003054326167330146,-0.021380282938480377,0.007941247895359993
1781789736358646000,5.07664599609375,0.00366519158706069,-0.02015855349600315,0.006719517521560192
1781789736374637800,5.092637939453125,0.00366519158706069,-0.02015855349600315,0.00733038317412138
1781789736390625500,5.10862548828125,0.0024434609804302454,-0.021991148591041565,0.00855211354792118
1781789736406612000,5.124612060546875,0.00427605677396059,-0.02076941914856434,0.00733038317412138
1781789736430598400,5.148598388671875,0.00366519158706069,-0.02076941914856434,0.006108652334660292
1781789736446589000,5.1645888671875,0.00427605677396059,-0.02015855349600315,0.007941247895359993
1781789736462578000,5.180577880859375,0.003054326167330146,-0.02015855349600315,0.006719517521560192
1781789736478570500,5.196570556640625,0.0024434609804302454,-0.021991148591041565,0.00733038317412138
1781789736494555100,5.21255517578125,0.0024434609804302454,-0.021991148591041565,0.00855211354792118
1781789736510540000,5.2285400390625,0.00366519158706069,-0.021991148591041565,0.00733038317412138
1781789736526525200,5.244525146484375,0.003054326167330146,-0.021991148591041565,0.006719517521560192
1781789736542511000,5.260510986328125,0.00366519158706069,-0.021991148591041565,0.00855211354792118
1781789736558500900,5.2765009765625,0.003054326167330146,-0.021991148591041565,0.005497787147760391
1781789736574488000,5.292488037109375,0.003054326167330146,-0.02076941914856434,0.00733038317412138
1781789736590475300,5.308475341796875,0.003054326167330146,-0.02321287989616394,0.007941247895359993
1781789736606460000,5.3244599609375,0.003054326167330146,-0.021991148591041565,0.007941247895359993
1781789736622446600,5.340446533203125,0.00366519158706069,-0.021380282938480377,0.00855211354792118
1781789736638433000,5.35643310546875,0.00427605677396059,-0.022602014243602753,0.006108652334660292
1781789736654419700,5.372419677734375,0.003054326167330146,-0.02015855349600315,0.006108652334660292
1781789736670408200,5.388408203125,0.003054326167330146,-0.022602014243602753,0.007941247895359993
1781789736686397700,5.404397705078125,0.00427605677396059,-0.021380282938480377,0.007941247895359993
1781789736702388000,5.420387939453125,0.00366519158706069,-0.021380282938480377,0.00733038317412138
1781789736718380300,5.43638037109375,0.003054326167330146,-0.02076941914856434,0.00733038317412138
1781789736734367700,5.45236767578125,0.00366519158706069,-0.02321287989616394,0.007941247895359993
1781789736750355000,5.46835498046875,0.00427605677396059,-0.022602014243602753,0.007941247895359993
1781789736766347500,5.484347412109375,0.00366519158706069,-0.021380282938480377,0.006108652334660292
1781789736782331400,5.500331298828125,0.003054326167330146,-0.02015855349600315,0.006719517521560192
1781789736798322400,5.516322509765625,0.00366519158706069,-0.02076941914856434,0.00855211354792118
1781789736814317000,5.532317138671875,0.00366519158706069,-0.02076941914856434,0.006108652334660292
1781789736830308900,5.548308837890625,0.003054326167330146,-0.02076941914856434,0.006719517521560192
1781789736846300400,5.564300537109375,0.00366519158706069,-0.02076941914856434,0.00733038317412138
1781789736862291500,5.58029150390625,0.0024434609804302454,-0.021380282938480377,0.007941247895359993
1781789736878280200,5.5962802734375,0.003054326167330146,-0.02015855349600315,0.00855211354792118
1781789736894275600,5.612275634765625,0.003054326167330146,-0.02015855349600315,0.006108652334660292
1781789736910269000,5.62826904296875,0.00366519158706069,-0.021991148591041565,0.00733038317412138
1781789736926261200,5.64426123046875,0.00366519158706069,-0.021380282938480377,0.00733038317412138
1781789736942249200,5.660249267578125,0.003054326167330146,-0.02076941914856434,0.006719517521560192
1781789736958236000,5.67623583984375,0.0024434609804302454,-0.02015855349600315,0.00733038317412138
1781789736974218800,5.69221875,0.0024434609804302454,-0.02076941914856434,0.007941247895359993
1781789736990209000,5.708208984375,0.0024434609804302454,-0.021991148591041565,0.006719517521560192
1781789737006192000,5.724192138671875,0.003054326167330146,-0.02015855349600315,0.00733038317412138
1781789737022182100,5.74018212890625,0.00427605677396059,-0.021380282938480377,0.00733038317412138
1781789737038171000,5.7561708984375,0.0024434609804302454,-0.02076941914856434,0.006108652334660292
1781789737054157300,5.7721572265625,0.00427605677396059,-0.022602014243602753,0.00855211354792118
1781789737070143200,5.788143310546875,0.003054326167330146,-0.021380282938480377,0.006719517521560192
1781789737086130400,5.80413037109375,0.00366519158706069,-0.02015855349600315,0.006719517521560192
1781789737102118700,5.82011865234375,0.003054326167330146,-0.019547687843441963,0.006719517521560192
1781789737118108200,5.836108154296875,0.003054326167330146,-0.021380282938480377,0.007941247895359993
1781789737134096100,5.85209619140625,0.00427605677396059,-0.02076941914856434,0.00733038317412138
1781789737150082600,5.86808251953125,0.00366519158706069,-0.021380282938480377,0.00733038317412138
1781789737166068200,5.884068115234375,0.003054326167330146,-0.02015855349600315,0.006719517521560192
1781789737182059000,5.90005908203125,0.0024434609804302454,-0.021991148591041565,0.006108652334660292
1781789737198047200,5.916047119140625,0.00366519158706069,-0.018325956538319588,0.006719517521560192
1781789737214033000,5.932032958984375,0.003054326167330146,-0.021380282938480377,0.006108652334660292
1781789737230023700,5.948023681640625,0.00427605677396059,-0.022602014243602753,0.006108652334660292
1781789737246015500,5.964015380859375,0.00366519158706069,-0.02076941914856434,0.00733038317412138
1781789737262007800,5.9800078125,0.003054326167330146,-0.02015855349600315,0.007941247895359993
1781789737277994000,5.995993896484375,0.00427605677396059,-0.021380282938480377,0.00733038317412138
1781789737293968400,6.011968505859375,0.00366519158706069,-0.02076941914856434,0.00733038317412138
1781789737309948400,6.027948486328125,0.00366519158706069,-0.02015855349600315,0.006108652334660292
1781789737325929500,6.043929443359375,0.003054326167330146,-0.02076941914856434,0.007941247895359993
1781789737341915100,6.0599150390625,0.00366519158706069,-0.02076941914856434,0.00733038317412138
1781789737357902800,6.07590283203125,0.003054326167330146,-0.02015855349600315,0.00733038317412138
1781789737373886200,6.09188623046875,0.003054326167330146,-0.021991148591041565,0.009162978269159794
1781789737389869000,6.107869140625,0.00366519158706069,-0.02076941914856434,0.007941247895359993
1781789737405854000,6.12385400390625,0.00366519158706069,-0.021380282938480377,0.006719517521560192
1781789737421837000,6.139837158203125,0.0024434609804302454,-0.021380282938480377,0.009162978269159794
1781789737437817000,6.155817138671875,0.0024434609804302454,-0.021991148591041565,0.00733038317412138
1781789737453801000,6.171801025390625,0.003054326167330146,-0.021991148591041565,0.007941247895359993
1781789737469783000,6.187782958984375,0.00427605677396059,-0.021991148591041565,0.005497787147760391
1781789737485757000,6.2037568359375,0.003054326167330146,-0.02382374368607998,0.00733038317412138
1781789737501740300,6.219740234375,0.00366519158706069,-0.019547687843441963,0.007941247895359993
1781789737517725200,6.23572509765625,0.00366519158706069,-0.022602014243602753,0.007941247895359993
1781789737533713200,6.251713134765625,0.00366519158706069,-0.021991148591041565,0.007941247895359993
1781789737549700900,6.267700927734375,0.003054326167330146,-0.02015855349600315,0.006719517521560192
1781789737565687000,6.28368701171875,0.00366519158706069,-0.021380282938480377,0.006719517521560192
1781789737581672700,6.299672607421875,0.0024434609804302454,-0.021380282938480377,0.007941247895359993
1781789737597663000,6.3156630859375,0.00366519158706069,-0.02076941914856434,0.00855211354792118
1781789737613648600,6.331648681640625,0.00366519158706069,-0.021991148591041565,0.006719517521560192
1781789737629635000,6.347635009765625,0.00427605677396059,-0.021991148591041565,0.00733038317412138
1781789737645625300,6.363625244140625,0.00366519158706069,-0.02076941914856434,0.00733038317412138
1781789737661617000,6.379616943359375,0.0024434609804302454,-0.021991148591041565,0.006108652334660292
1781789737677606400,6.3956064453125,0.00366519158706069,-0.021380282938480377,0.00733038317412138
1781789737693594400,6.411594482421875,0.003054326167330146,-0.021380282938480377,0.006108652334660292
1781789737709587000,6.4275869140625,0.003054326167330146,-0.02015855349600315,0.006719517521560192
1781789737725581600,6.44358154296875,0.003054326167330146,-0.022602014243602753,0.007941247895359993
1781789737741572900,6.45957275390625,0.0024434609804302454,-0.021380282938480377,0.00733038317412138
1781789737757562600,6.475562744140625,0.00427605677396059,-0.02076941914856434,0.00733038317412138
1781789737773553200,6.49155322265625,0.0024434609804302454,-0.02015855349600315,0.009162978269159794
1781789737789545500,6.50754541015625,0.0024434609804302454,-0.021380282938480377,0.007941247895359993
1781789737805537300,6.523537353515625,0.003054326167330146,-0.02076941914856434,0.006719517521560192
1781789737821523200,6.539523193359375,0.00366519158706069,-0.02076941914856434,0.009162978269159794
1781789737837513200,6.55551318359375,0.0024434609804302454,-0.02015855349600315,0.005497787147760391
1781789737853507600,6.571507568359375,0.00366519158706069,-0.021991148591041565,0.007941247895359993
1781789737869497300,6.587497314453125,0.0024434609804302454,-0.021991148591041565,0.00855211354792118
1781789737885484800,6.60348486328125,0.00366519158706069,-0.02015855349600315,0.007941247895359993
1781789737901476900,6.619476806640625,0.003054326167330146,-0.02015855349600315,0.00855211354792118
1781789737917476600,6.6354765625,0.00366519158706069,-0.022602014243602753,0.00855211354792118
1781789737933475000,6.65147509765625,0.003054326167330146,-0.02015855349600315,0.00733038317412138
1781789737949463600,6.667463623046875,0.003054326167330146,-0.019547687843441963,0.006108652334660292
1781789737965454800,6.683454833984375,0.00366519158706069,-0.021380282938480377,0.007941247895359993
1781789737981445600,6.699445556640625,0.003054326167330146,-0.02076941914856434,0.007941247895359993
1781789737997437200,6.715437255859375,0.003054326167330146,-0.02015855349600315,0.007941247895359993
1781789738013429000,6.731428955078125,0.0024434609804302454,-0.02076941914856434,0.007941247895359993
1781789738029421300,6.74742138671875,0.00366519158706069,-0.019547687843441963,0.007941247895359993
1781789738045411600,6.76341162109375,0.003054326167330146,-0.022602014243602753,0.007941247895359993
1781789738061408000,6.779407958984375,0.0024434609804302454,-0.021991148591041565,0.006108652334660292
1781789738077400300,6.795400390625,0.003054326167330146,-0.021991148591041565,0.007941247895359993
1781789738093393000,6.811392822265625,0.00366519158706069,-0.021380282938480377,0.006719517521560192
1781789738109382400,6.82738232421875,0.001832595793530345,-0.02076941914856434,0.006719517521560192
1781789738125371600,6.84337158203125,0.00366519158706069,-0.021380282938480377,0.009162978269159794
1781789738141365000,6.859364990234375,0.00427605677396059,-0.02076941914856434,0.00733038317412138
1781789738157358800,6.87535888671875,0.003054326167330146,-0.02015855349600315,0.009773843921720982
1781789738173345800,6.891345703125,0.00366519158706069,-0.021991148591041565,0.00733038317412138
1781789738189327400,6.907327392578125,0.00366519158706069,-0.021380282938480377,0.00733038317412138
1781789738205311000,6.92331103515625,0.003054326167330146,-0.02076941914856434,0.00733038317412138
1781789738221301500,6.939301513671875,0.00366519158706069,-0.02076941914856434,0.004886921960860491
1781789738237291000,6.955291015625,0.00427605677396059,-0.018936822190880775,0.00733038317412138
1781789738253279700,6.97127978515625,0.00427605677396059,-0.021991148591041565,0.006719517521560192
1781789738269270800,6.987270751953125,0.003054326167330146,-0.022602014243602753,0.006108652334660292
1781789738285262000,7.003261962890625,0.0024434609804302454,-0.02076941914856434,0.007941247895359993
1781789738301247200,7.019247314453125,0.0024434609804302454,-0.022602014243602753,0.006108652334660292
1781789738317229300,7.035229248046875,0.00366519158706069,-0.021380282938480377,0.005497787147760391
1781789738333214000,7.0512138671875,0.003054326167330146,-0.021380282938480377,0.00733038317412138
1781789738349195300,7.0671953125,0.00366519158706069,-0.02321287989616394,0.006719517521560192
1781789738365183700,7.083183837890625,0.00366519158706069,-0.02321287989616394,0.00855211354792118
1781789738381170700,7.099170654296875,0.00366519158706069,-0.022602014243602753,0.007941247895359993
1781789738397160400,7.115160400390625,0.003054326167330146,-0.02076941914856434,0.006719517521560192
1781789738413145600,7.1311455078125,0.00366519158706069,-0.021380282938480377,0.006719517521560192
1781789738429131300,7.14713134765625,0.0024434609804302454,-0.02015855349600315,0.00733038317412138
1781789738445119000,7.163118896484375,0.003054326167330146,-0.021991148591041565,0.007941247895359993
1781789738461105200,7.179105224609375,0.00366519158706069,-0.019547687843441963,0.006108652334660292
1781789738477094700,7.1950947265625,0.00427605677396059,-0.021380282938480377,0.00733038317412138
1781789738493083600,7.211083740234375,0.003054326167330146,-0.02015855349600315,0.007941247895359993
1781789738509074000,7.227073974609375,0.00366519158706069,-0.021380282938480377,0.005497787147760391
1781789738525059600,7.2430595703125,0.00427605677396059,-0.021380282938480377,0.00855211354792118
1781789738541042400,7.25904248046875,0.00366519158706069,-0.021991148591041565,0.00733038317412138
1781789738557029000,7.275029052734375,0.00366519158706069,-0.019547687843441963,0.007941247895359993
1781789738573016000,7.29101611328125,0.00366519158706069,-0.021380282938480377,0.005497787147760391
1781789738589002200,7.307002197265625,0.00366519158706069,-0.022602014243602753,0.00733038317412138
1781789738604986600,7.322986572265625,0.003054326167330146,-0.02015855349600315,0.007941247895359993
1781789738620974000,7.33897412109375,0.00366519158706069,-0.02015855349600315,0.00733038317412138
1781789738636969200,7.35496923828125,0.003054326167330146,-0.02076941914856434,0.007941247895359993
1781789738652957700,7.370957763671875,0.0024434609804302454,-0.021991148591041565,0.00733038317412138
1781789738668952000,7.3869521484375,0.00427605677396059,-0.02076941914856434,0.006719517521560192
1781789738684945700,7.402945556640625,0.00366519158706069,-0.021380282938480377,0.007941247895359993
1781789738700944100,7.418944091796875,0.0024434609804302454,-0.022602014243602753,0.005497787147760391
1781789738716938200,7.434938232421875,0.003054326167330146,-0.02015855349600315,0.006108652334660292
1781789738732936000,7.45093603515625,0.00366519158706069,-0.02076941914856434,0.006108652334660292
1781789738748933000,7.46693310546875,0.003054326167330146,-0.02321287989616394,0.00733038317412138
1781789738764926500,7.482926513671875,0.00366519158706069,-0.019547687843441963,0.00733038317412138
1781789738780912400,7.498912353515625,0.001832595793530345,-0.021380282938480377,0.00855211354792118
1781789738796900000,7.514900146484375,0.00366519158706069,-0.02076941914856434,0.009162978269159794
1781789738812892700,7.530892578125,0.00366519158706069,-0.02015855349600315,0.00733038317412138
1781789738828882400,7.54688232421875,0.0024434609804302454,-0.021380282938480377,0.006719517521560192
1781789738844871000,7.562870849609375,0.0024434609804302454,-0.02015855349600315,0.006719517521560192
1781789738860861200,7.578861083984375,0.003054326167330146,-0.02076941914856434,0.006719517521560192
1781789738876854300,7.594854248046875,0.001832595793530345,-0.022602014243602753,0.006719517521560192
1781789738892850400,7.610850341796875,0.001832595793530345,-0.02076941914856434,0.00855211354792118
1781789738908840700,7.6268408203125,0.00366519158706069,-0.02076941914856434,0.009162978269159794
1781789738924833800,7.642833740234375,0.003054326167330146,-0.02015855349600315,0.00855211354792118
1781789738940818400,7.658818359375,0.003054326167330146,-0.018936822190880775,0.006108652334660292
1781789738956808000,7.674807861328125,0.004886921960860491,-0.018936822190880775,0.007941247895359993
1781789738972802000,7.690802001953125,0.00366519158706069,-0.021380282938480377,0.00733038317412138
1781789738988801000,7.706801025390625,0.00366519158706069,-0.02015855349600315,0.00855211354792118
1781789739004794600,7.722794677734375,0.00366519158706069,-0.021380282938480377,0.00855211354792118
1781789739020786000,7.738785888671875,0.00366519158706069,-0.021380282938480377,0.006719517521560192
1781789739036781300,7.75478125,0.00366519158706069,-0.02076941914856434,0.007941247895359993
1781789739052773400,7.7707734375,0.003054326167330146,-0.02015855349600315,0.00733038317412138
1781789739068769300,7.786769287109375,0.0024434609804302454,-0.02015855349600315,0.00733038317412138
1781789739084764400,7.802764404296875,0.003054326167330146,-0.02015855349600315,0.006719517521560192
1781789739100764000,7.818763916015625,0.0024434609804302454,-0.02015855349600315,0.007941247895359993
1781789739116757000,7.834757080078125,0.0024434609804302454,-0.022602014243602753,0.007941247895359993
1781789739132747000,7.8507470703125,0.003054326167330146,-0.021991148591041565,0.006719517521560192
1781789739148736300,7.866736328125,0.00366519158706069,-0.02076941914856434,0.00855211354792118
1781789739164727300,7.882727294921875,0.00366519158706069,-0.021380282938480377,0.006719517521560192
1781789739180721700,7.8987216796875,0.00366519158706069,-0.021991148591041565,0.009773843921720982
1781789739196714200,7.91471435546875,0.0024434609804302454,-0.022602014243602753,0.006719517521560192
1781789739212705500,7.93070556640625,0.0024434609804302454,-0.021991148591041565,0.00733038317412138
1781789739228695000,7.946695068359375,0.004886921960860491,-0.02321287989616394,0.00855211354792118
1781789739244691500,7.96269140625,0.0024434609804302454,-0.021380282938480377,0.007941247895359993
1781789739260681700,7.978681640625,0.003054326167330146,-0.02015855349600315,0.006719517521560192
1781789739276674800,7.9946748046875,0.003054326167330146,-0.02076941914856434,0.007941247895359993
1781789739292672800,8.0106728515625,0.003054326167330146,-0.02076941914856434,0.00733038317412138
1781789739308674800,8.0266748046875,0.00427605677396059,-0.021991148591041565,0.006719517521560192
1781789739324668700,8.042668701171875,0.001832595793530345,-0.021380282938480377,0.007941247895359993
1781789739340666600,8.05866650390625,0.001832595793530345,-0.022602014243602753,0.00733038317412138
1781789739356661500,8.07466162109375,0.00366519158706069,-0.02076941914856434,0.006719517521560192
1781789739372659500,8.090659423828125,0.00427605677396059,-0.02015855349600315,0.006719517521560192
1781789739388653800,8.10665380859375,0.003054326167330146,-0.021380282938480377,0.006108652334660292
1781789739404653000,8.122653076171876,0.0024434609804302454,-0.02015855349600315,0.006719517521560192
1781789739420654300,8.138654296875,0.00366519158706069,-0.021380282938480377,0.00855211354792118
1781789739436645600,8.154645751953124,0.001832595793530345,-0.02015855349600315,0.00733038317412138
1781789739452635400,8.170635498046876,0.00366519158706069,-0.021380282938480377,0.00733038317412138
1781789739468625200,8.186625244140625,0.003054326167330146,-0.021380282938480377,0.009773843921720982
1781789739484611300,8.202611328125,0.00366519158706069,-0.022602014243602753,0.009162978269159794
1781789739500598000,8.218597900390625,0.00366519158706069,-0.021991148591041565,0.006108652334660292
1781789739516589000,8.234589111328125,0.003054326167330146,-0.022602014243602753,0.00855211354792118
1781789739532581400,8.250581298828125,0.003054326167330146,-0.02015855349600315,0.00733038317412138
1781789739548574700,8.26657470703125,0.003054326167330146,-0.02015855349600315,0.007941247895359993
1781789739564575700,8.28257568359375,0.0024434609804302454,-0.021991148591041565,0.007941247895359993
1781789739580572400,8.298572509765625,0.00366519158706069,-0.02076941914856434,0.006719517521560192
1781789739596566800,8.31456689453125,0.00366519158706069,-0.02076941914856434,0.006719517521560192
1781789739612561400,8.3305615234375,0.003054326167330146,-0.02076941914856434,0.00855211354792118
1781789739628554800,8.3465546875,0.0024434609804302454,-0.019547687843441963,0.00733038317412138
1781789739644546300,8.36254638671875,0.003054326167330146,-0.021380282938480377,0.006719517521560192
1781789739660545000,8.378544921875,0.003054326167330146,-0.021991148591041565,0.007941247895359993
1781789739676536600,8.39453662109375,0.00427605677396059,-0.021380282938480377,0.007941247895359993
1781789739692529400,8.410529296875,0.0024434609804302454,-0.021991148591041565,0.006108652334660292
1781789739708524300,8.426524169921874,0.00366519158706069,-0.022602014243602753,0.006108652334660292
1781789739724520200,8.442520263671875,0.003054326167330146,-0.021380282938480377,0.00733038317412138
1781789739740514600,8.4585146484375,0.003054326167330146,-0.021380282938480377,0.00733038317412138
1781789739756507600,8.474507568359375,0.00366519158706069,-0.02076941914856434,0.00733038317412138
1781789739772497200,8.4904970703125,0.00427605677396059,-0.019547687843441963,0.005497787147760391
1781789739788492300,8.5064921875,0.00366519158706069,-0.021380282938480377,0.006108652334660292
1781789739804485600,8.522485595703126,0.00366519158706069,-0.021380282938480377,0.00733038317412138
1781789739820475100,8.53847509765625,0.00366519158706069,-0.021380282938480377,0.00855211354792118
1781789739836463900,8.5544638671875,0.003054326167330146,-0.02076941914856434,0.00855211354792118
1781789739852454000,8.570453857421874,0.00427605677396059,-0.021991148591041565,0.00733038317412138
1781789739868443600,8.586443603515624,0.003054326167330146,-0.021380282938480377,0.007941247895359993
1781789739884430800,8.602430908203125,0.003054326167330146,-0.021991148591041565,0.006108652334660292
1781789739900425500,8.618425537109376,0.004886921960860491,-0.02076941914856434,0.007941247895359993
1781789739916414200,8.634414306640625,0.003054326167330146,-0.02076941914856434,0.007941247895359993
1781789739932407300,8.6504072265625,0.003054326167330146,-0.021380282938480377,0.009162978269159794
1781789739948398300,8.6663984375,0.003054326167330146,-0.022602014243602753,0.007941247895359993
1781789739964385000,8.682385009765625,0.00366519158706069,-0.02015855349600315,0.006719517521560192
1781789739980377600,8.698377685546875,0.003054326167330146,-0.02015855349600315,0.00733038317412138
1781789739996369000,8.714368896484375,0.00366519158706069,-0.02076941914856434,0.007941247895359993
1781789740012361700,8.73036181640625,0.003054326167330146,-0.021991148591041565,0.00733038317412138
1781789740028351700,8.746351806640625,0.00366519158706069,-0.02076941914856434,0.00733038317412138
1781789740044338700,8.762338623046874,0.003054326167330146,-0.021991148591041565,0.006108652334660292
1781789740060324600,8.77832470703125,0.00366519158706069,-0.02382374368607998,0.006719517521560192
1781789740076312600,8.7943125,0.003054326167330146,-0.021991148591041565,0.004886921960860491
1781789740092300500,8.810300537109375,0.00427605677396059,-0.021380282938480377,0.009162978269159794
1781789740108290800,8.826290771484375,0.00366519158706069,-0.021991148591041565,0.006108652334660292
1781789740124290300,8.842290283203125,0.003054326167330146,-0.02015855349600315,0.00733038317412138
1781789740140290800,8.858290771484375,0.003054326167330146,-0.021380282938480377,0.006108652334660292
1781789740156286500,8.874286376953124,0.00427605677396059,-0.021991148591041565,0.00855211354792118
1781789740172284200,8.8902841796875,0.003054326167330146,-0.02015855349600315,0.005497787147760391
1781789740188279800,8.90627978515625,0.003054326167330146,-0.021380282938480377,0.006719517521560192
1781789740204271600,8.922271728515625,0.0024434609804302454,-0.02015855349600315,0.005497787147760391
1781789740220264400,8.938264404296875,0.003054326167330146,-0.021991148591041565,0.007941247895359993
1781789740236255700,8.954255859375,0.003054326167330146,-0.022602014243602753,0.007941247895359993
1781789740252242200,8.9702421875,0.0024434609804302454,-0.02015855349600315,0.00733038317412138
1781789740268231400,8.9862314453125,0.00366519158706069,-0.018936822190880775,0.00855211354792118
1781789740284221200,9.00222119140625,0.003054326167330146,-0.021991148591041565,0.00733038317412138
1781789740300210400,9.01821044921875,0.003054326167330146,-0.021991148591041565,0.009162978269159794
1781789740316204000,9.0342041015625,0.00366519158706069,-0.021991148591041565,0.00733038317412138
1781789740332199700,9.05019970703125,0.003054326167330146,-0.02321287989616394,0.005497787147760391
1781789740348195600,9.066195556640626,0.00427605677396059,-0.021380282938480377,0.00733038317412138
1781789740364186400,9.082186279296875,0.00427605677396059,-0.019547687843441963,0.00733038317412138
1781789740380173600,9.098173583984375,0.0024434609804302454,-0.02321287989616394,0.009162978269159794
1781789740396168200,9.114168212890625,0.0024434609804302454,-0.021380282938480377,0.006719517521560192
1781789740412161300,9.130161376953126,0.0024434609804302454,-0.02015855349600315,0.00427605677396059
1781789740428153300,9.1461533203125,0.00427605677396059,-0.02076941914856434,0.009162978269159794
1781789740444145000,9.162144775390624,0.00366519158706069,-0.021991148591041565,0.00855211354792118
1781789740460140500,9.178140625,0.00366519158706069,-0.021380282938480377,0.006108652334660292
1781789740476138000,9.194137939453125,0.004886921960860491,-0.02076941914856434,0.00733038317412138
1781789740492135200,9.21013525390625,0.00427605677396059,-0.02015855349600315,0.00733038317412138
1781789740508128500,9.22612841796875,0.00427605677396059,-0.021380282938480377,0.009773843921720982
1781789740524122000,9.2421220703125,0.00366519158706069,-0.02076941914856434,0.00733038317412138
1781789740540114000,9.258114013671875,0.003054326167330146,-0.02076941914856434,0.006719517521560192
1781789740556106200,9.274106201171875,0.00366519158706069,-0.021380282938480377,0.00733038317412138
1781789740572100400,9.290100341796874,0.003054326167330146,-0.02015855349600315,0.006719517521560192
1781789740588092200,9.306092041015624,0.003054326167330146,-0.02076941914856434,0.00855211354792118
1781789740604088800,9.3220888671875,0.00366519158706069,-0.02076941914856434,0.00733038317412138
1781789740620088000,9.338088134765625,0.003054326167330146,-0.021380282938480377,0.006108652334660292
1781789740636084700,9.354084716796875,0.003054326167330146,-0.022602014243602753,0.006108652334660292
1781789740652083200,9.370083251953124,0.003054326167330146,-0.021991148591041565,0.006719517521560192
1781789740668076300,9.386076171875,0.003054326167330146,-0.02076941914856434,0.006108652334660292
1781789740684070100,9.402070068359375,0.003054326167330146,-0.02076941914856434,0.006108652334660292
1781789740700068600,9.418068603515625,0.0024434609804302454,-0.022602014243602753,0.00855211354792118
1781789740716070700,9.434070556640625,0.00366519158706069,-0.02076941914856434,0.00733038317412138
1781789740732072200,9.450072265625,0.0024434609804302454,-0.019547687843441963,0.007941247895359993
1781789740748064800,9.466064697265624,0.003054326167330146,-0.022602014243602753,0.005497787147760391
1781789740764064300,9.482064208984376,0.003054326167330146,-0.021991148591041565,0.006719517521560192
1781789740780059000,9.498058837890625,0.003054326167330146,-0.02015855349600315,0.006719517521560192
1781789740796055600,9.5140556640625,0.00366519158706069,-0.022602014243602753,0.006719517521560192
1781789740812047600,9.530047607421874,0.0024434609804302454,-0.021380282938480377,0.009162978269159794
1781789740828034600,9.54603466796875,0.00366519158706069,-0.021991148591041565,0.006108652334660292
1781789740844020500,9.5620205078125,0.0024434609804302454,-0.02015855349600315,0.007941247895359993
1781789740860004400,9.57800439453125,0.0024434609804302454,-0.021380282938480377,0.006719517521560192
1781789740875991600,9.593991455078125,0.00366519158706069,-0.019547687843441963,0.006108652334660292
1781789740891977000,9.60997705078125,0.0024434609804302454,-0.019547687843441963,0.00855211354792118
1781789740907970000,9.625969970703125,0.004886921960860491,-0.021380282938480377,0.006719517521560192
1781789740923959000,9.641958984375,0.003054326167330146,-0.02015855349600315,0.006719517521560192
1781789740939945000,9.657945068359375,0.00366519158706069,-0.021991148591041565,0.00733038317412138
1781789740955931100,9.67393115234375,0.00366519158706069,-0.021380282938480377,0.00733038317412138
1781789740971920000,9.689919921875,0.00366519158706069,-0.021380282938480377,0.007941247895359993
1781789740987907600,9.705907470703124,0.00427605677396059,-0.021380282938480377,0.00855211354792118
1781789741003894800,9.721894775390625,0.00427605677396059,-0.021991148591041565,0.00733038317412138
1781789741019883000,9.737883056640625,0.0024434609804302454,-0.02015855349600315,0.006719517521560192
1781789741035872300,9.753872314453124,0.0024434609804302454,-0.021991148591041565,0.007941247895359993
1781789741051861000,9.769861083984376,0.0024434609804302454,-0.02076941914856434,0.00733038317412138
1781789741067854300,9.785854248046874,0.0024434609804302454,-0.02321287989616394,0.00733038317412138
1781789741083849200,9.80184912109375,0.00427605677396059,-0.021380282938480377,0.006108652334660292
1781789741099841800,9.817841796875,0.003054326167330146,-0.021991148591041565,0.006719517521560192
1781789741115832600,9.83383251953125,0.00366519158706069,-0.02015855349600315,0.006108652334660292
1781789741131826000,9.849825927734376,0.0024434609804302454,-0.021380282938480377,0.007941247895359993
1781789741147819300,9.8658193359375,0.003054326167330146,-0.02015855349600315,0.009162978269159794
1781789741163811300,9.881811279296874,0.00427605677396059,-0.021991148591041565,0.00733038317412138
1781789741179803600,9.8978037109375,0.00366519158706069,-0.021991148591041565,0.004886921960860491
1781789741195797800,9.9137978515625,0.00366519158706069,-0.022602014243602753,0.009162978269159794
1781789741211790000,9.9297900390625,0.001832595793530345,-0.021380282938480377,0.006108652334660292
1781789741227784400,9.945784423828124,0.0024434609804302454,-0.02076941914856434,0.007941247895359993
1781789741243776800,9.96177685546875,0.003054326167330146,-0.021991148591041565,0.00855211354792118
1781789741259766500,9.9777666015625,0.003054326167330146,-0.02382374368607998,0.007941247895359993
1781789741275757300,9.99375732421875,0.0024434609804302454,-0.022602014243602753,0.007941247895359993
1781789741291750700,10.009750732421875,0.003054326167330146,-0.02076941914856434,0.00855211354792118
1781789741307747300,10.025747314453126,0.003054326167330146,-0.02076941914856434,0.006719517521560192
1781789741323744500,10.04174462890625,0.00366519158706069,-0.018936822190880775,0.009162978269159794
1781789741339740000,10.057739990234374,0.003054326167330146,-0.02076941914856434,0.00733038317412138
1781789741355737300,10.0737373046875,0.00427605677396059,-0.021380282938480377,0.006719517521560192
1781789741371733000,10.08973291015625,0.0024434609804302454,-0.02015855349600315,0.00855211354792118
1781789741387734800,10.10573486328125,0.0024434609804302454,-0.021991148591041565,0.007941247895359993
1781789741403733000,10.12173291015625,0.00366519158706069,-0.02076941914856434,0.00855211354792118
1781789741419725600,10.1377255859375,0.00366519158706069,-0.022602014243602753,0.006108652334660292
1781789741435719000,10.153718994140625,0.00427605677396059,-0.019547687843441963,0.00733038317412138
1781789741451717600,10.169717529296875,0.003054326167330146,-0.021380282938480377,0.007941247895359993
1781789741467714000,10.185714111328124,0.003054326167330146,-0.019547687843441963,0.007941247895359993
1781789741483712000,10.2017119140625,0.00366519158706069,-0.021380282938480377,0.00733038317412138
1781789741499704000,10.2177041015625,0.00427605677396059,-0.02076941914856434,0.00733038317412138
1781789741515695400,10.2336953125,0.003054326167330146,-0.02076941914856434,0.00733038317412138
1781789741531689200,10.249689208984375,0.00366519158706069,-0.02076941914856434,0.00733038317412138
1781789741547680800,10.2656806640625,0.00366519158706069,-0.02076941914856434,0.00733038317412138
1781789741563675400,10.28167529296875,0.003054326167330146,-0.02076941914856434,0.007941247895359993
1781789741579667000,10.2976669921875,0.0024434609804302454,-0.021380282938480377,0.006719517521560192
1781789741595657700,10.31365771484375,0.00366519158706069,-0.02076941914856434,0.00733038317412138
1781789741611648800,10.329648681640625,0.00427605677396059,-0.02015855349600315,0.007941247895359993
1781789741627642000,10.34564208984375,0.003054326167330146,-0.021380282938480377,0.00733038317412138
1781789741643627000,10.361626953125,0.003054326167330146,-0.02321287989616394,0.009162978269159794
1781789741659612400,10.3776123046875,0.00366519158706069,-0.021991148591041565,0.00733038317412138
1781789741675609600,10.393609619140625,0.003054326167330146,-0.02015855349600315,0.00733038317412138
1781789741691602400,10.4096025390625,0.00366519158706069,-0.021991148591041565,0.00733038317412138
1781789741707596800,10.4255966796875,0.003054326167330146,-0.02321287989616394,0.006719517521560192
1781789741723598600,10.4415986328125,0.00427605677396059,-0.022602014243602753,0.007941247895359993
1781789741739604500,10.4576044921875,0.001832595793530345,-0.021380282938480377,0.006719517521560192
1781789741755609600,10.473609619140625,0.00366519158706069,-0.022602014243602753,0.00855211354792118
1781789741771609000,10.489609130859375,0.001832595793530345,-0.02076941914856434,0.00855211354792118
1781789741787608800,10.50560888671875,0.003054326167330146,-0.02076941914856434,0.006719517521560192
1781789741803609000,10.521609130859375,0.00427605677396059,-0.02015855349600315,0.007941247895359993
1781789741819606800,10.537606689453124,0.00366519158706069,-0.021380282938480377,0.007941247895359993
1781789741835603200,10.553603271484375,0.003054326167330146,-0.021991148591041565,0.006719517521560192
1781789741851597000,10.56959716796875,0.0024434609804302454,-0.021991148591041565,0.00733038317412138
1781789741867591000,10.5855908203125,0.0024434609804302454,-0.021991148591041565,0.00855211354792118
1781789741883589400,10.60158935546875,0.003054326167330146,-0.021380282938480377,0.006108652334660292
1781789741899586300,10.61758642578125,0.003054326167330146,-0.021380282938480377,0.006108652334660292
1781789741915586600,10.633586669921876,0.00366519158706069,-0.022602014243602753,0.00733038317412138
1781789741931585500,10.64958544921875,0.00366519158706069,-0.02015855349600315,0.006719517521560192
1781789741947587600,10.665587646484376,0.0024434609804302454,-0.02321287989616394,0.00733038317412138
1781789741963585500,10.68158544921875,0.00366519158706069,-0.021380282938480377,0.007941247895359993
1781789741979584800,10.697584716796875,0.0024434609804302454,-0.022602014243602753,0.007941247895359993
1781789741995589600,10.713589599609374,0.003054326167330146,-0.021380282938480377,0.007941247895359993
1781789742011587300,10.72958740234375,0.00366519158706069,-0.021991148591041565,0.00733038317412138
1781789742027582000,10.74558203125,0.0024434609804302454,-0.021991148591041565,0.007941247895359993
1781789742043580700,10.76158056640625,0.00366519158706069,-0.02076941914856434,0.00855211354792118
1781789742059581700,10.777581787109375,0.001832595793530345,-0.02076941914856434,0.00855211354792118
1781789742075575300,10.7935751953125,0.00366519158706069,-0.021380282938480377,0.006719517521560192
1781789742091571200,10.8095712890625,0.0024434609804302454,-0.02076941914856434,0.006108652334660292
1781789742107573200,10.8255732421875,0.00366519158706069,-0.02076941914856434,0.007941247895359993
1781789742123571200,10.8415712890625,0.003054326167330146,-0.022602014243602753,0.007941247895359993
1781789742139571500,10.857571533203124,0.001832595793530345,-0.02321287989616394,0.00427605677396059
1781789742155571200,10.8735712890625,0.00366519158706069,-0.021380282938480377,0.00733038317412138
1781789742171567000,10.889567138671875,0.003054326167330146,-0.02015855349600315,0.006719517521560192
1781789742187560000,10.905559814453126,0.00366519158706069,-0.02076941914856434,0.00733038317412138
1781789742203552800,10.921552734375,0.00427605677396059,-0.021991148591041565,0.009162978269159794
1781789742219555800,10.937555908203125,0.0024434609804302454,-0.021380282938480377,0.00733038317412138
1781789742235553500,10.953553466796874,0.00366519158706069,-0.019547687843441963,0.007941247895359993
1781789742251552800,10.969552734375,0.004886921960860491,-0.02076941914856434,0.00733038317412138
1781789742267553500,10.985553466796874,0.0024434609804302454,-0.022602014243602753,0.007941247895359993
1781789742283551000,11.001551025390626,0.00366519158706069,-0.02076941914856434,0.00733038317412138
1781789742299552500,11.017552490234374,0.00427605677396059,-0.02321287989616394,0.00733038317412138
1781789742315545600,11.033545654296875,0.00366519158706069,-0.021380282938480377,0.009162978269159794
1781789742331530500,11.049530517578125,0.003054326167330146,-0.021380282938480377,0.00855211354792118
1781789742347512600,11.0655126953125,0.00366519158706069,-0.02076941914856434,0.006108652334660292
1781789742363504400,11.08150439453125,0.0024434609804302454,-0.021380282938480377,0.006108652334660292
1781789742379498200,11.097498291015626,0.00366519158706069,-0.021380282938480377,0.007941247895359993
1781789742395485700,11.113485595703125,0.0024434609804302454,-0.021380282938480377,0.00733038317412138
1781789742411479600,11.1294794921875,0.00427605677396059,-0.02076941914856434,0.007941247895359993
1781789742427475200,11.14547509765625,0.0024434609804302454,-0.019547687843441963,0.00733038317412138
1781789742443472600,11.16147265625,0.0024434609804302454,-0.021991148591041565,0.00855211354792118
1781789742459469000,11.177468994140625,0.003054326167330146,-0.021380282938480377,0.00855211354792118
1781789742475465500,11.193465576171874,0.0024434609804302454,-0.021380282938480377,0.009162978269159794
1781789742491459600,11.20945947265625,0.00366519158706069,-0.021380282938480377,0.00733038317412138
1781789742507450000,11.2254501953125,0.003054326167330146,-0.02076941914856434,0.00733038317412138
1781789742523442400,11.2414423828125,0.003054326167330146,-0.019547687843441963,0.006108652334660292
1781789742539440600,11.257440673828125,0.00366519158706069,-0.02321287989616394,0.007941247895359993
1781789742555432400,11.273432373046875,0.0024434609804302454,-0.021380282938480377,0.004886921960860491
1781789742571422700,11.289422607421875,0.003054326167330146,-0.02076941914856434,0.006719517521560192
1781789742587420400,11.30542041015625,0.003054326167330146,-0.02076941914856434,0.00733038317412138
1781789742603414800,11.321414794921875,0.003054326167330146,-0.02076941914856434,0.00733038317412138
1781789742619404500,11.337404541015625,0.00427605677396059,-0.021380282938480377,0.006719517521560192
1781789742635394300,11.353394287109374,0.00366519158706069,-0.021380282938480377,0.00733038317412138
1781789742651386600,11.36938671875,0.003054326167330146,-0.02076941914856434,0.00855211354792118
1781789742667375600,11.385375732421876,0.00427605677396059,-0.02015855349600315,0.005497787147760391
1781789742683364900,11.40136474609375,0.00366519158706069,-0.021991148591041565,0.007941247895359993
1781789742699356000,11.41735595703125,0.0024434609804302454,-0.02076941914856434,0.00733038317412138
1781789742715351000,11.43335107421875,0.00366519158706069,-0.02076941914856434,0.00855211354792118
1781789742731344400,11.449344482421875,0.00366519158706069,-0.021380282938480377,0.007941247895359993
1781789742747333600,11.465333740234374,0.003054326167330146,-0.02076941914856434,0.007941247895359993
1781789742763320300,11.4813203125,0.00366519158706069,-0.019547687843441963,0.006108652334660292
1781789742779310600,11.497310546875,0.0024434609804302454,-0.021380282938480377,0.007941247895359993
1781789742795300600,11.513300537109375,0.003054326167330146,-0.02015855349600315,0.005497787147760391
1781789742811295700,11.529295654296876,0.003054326167330146,-0.021991148591041565,0.006719517521560192
1781789742827283700,11.54528369140625,0.00366519158706069,-0.02015855349600315,0.007941247895359993
1781789742843269000,11.56126904296875,0.0024434609804302454,-0.022602014243602753,0.006719517521560192
1781789742859260000,11.577260009765626,0.00366519158706069,-0.02015855349600315,0.009773843921720982
1781789742875243300,11.5932431640625,0.003054326167330146,-0.02076941914856434,0.00855211354792118
1781789742891228400,11.609228515625,0.003054326167330146,-0.021380282938480377,0.00733038317412138
1781789742907213000,11.625213134765625,0.0024434609804302454,-0.021380282938480377,0.006108652334660292
1781789742923200300,11.6412001953125,0.00366519158706069,-0.021991148591041565,0.00733038317412138
1781789742939190000,11.65718994140625,0.003054326167330146,-0.021991148591041565,0.005497787147760391
1781789742955179800,11.6731796875,0.00366519158706069,-0.021991148591041565,0.007941247895359993
1781789742971172000,11.689172119140625,0.003054326167330146,-0.022602014243602753,0.007941247895359993
1781789742987161900,11.705161865234375,0.00366519158706069,-0.02015855349600315,0.006719517521560192
1781789743003149300,11.7211494140625,0.0024434609804302454,-0.02015855349600315,0.009162978269159794
1781789743019133400,11.737133544921875,0.003054326167330146,-0.021380282938480377,0.00733038317412138
1781789743035119000,11.753119140625,0.003054326167330146,-0.02015855349600315,0.006719517521560192
1781789743051110000,11.76910986328125,0.00366519158706069,-0.021380282938480377,0.006719517521560192
1781789743067096300,11.785096435546874,0.003054326167330146,-0.021991148591041565,0.00733038317412138
1781789743083081000,11.8010810546875,0.003054326167330146,-0.021380282938480377,0.00733038317412138
1781789743099069700,11.817069580078124,0.0024434609804302454,-0.02076941914856434,0.006719517521560192
1781789743115059000,11.833058837890626,0.00366519158706069,-0.02076941914856434,0.007941247895359993
1781789743131047200,11.849047119140625,0.00366519158706069,-0.022602014243602753,0.00733038317412138
1781789743147036400,11.865036376953125,0.003054326167330146,-0.02076941914856434,0.00733038317412138
1781789743163022000,11.88102197265625,0.00427605677396059,-0.022602014243602753,0.00733038317412138
1781789743179010800,11.8970107421875,0.00366519158706069,-0.02015855349600315,0.00733038317412138
1781789743194999600,11.91299951171875,0.003054326167330146,-0.02076941914856434,0.00733038317412138
1781789743210986000,11.928986083984375,0.00366519158706069,-0.02382374368607998,0.00855211354792118
1781789743226974200,11.94497412109375,0.003054326167330146,-0.021991148591041565,0.006719517521560192
1781789743242966800,11.960966796875,0.00366519158706069,-0.021991148591041565,0.007941247895359993
1781789743258954000,11.9769541015625,0.003054326167330146,-0.02076941914856434,0.006108652334660292
1781789743274948400,11.9929482421875,0.003054326167330146,-0.02076941914856434,0.00733038317412138
1781789743290940200,12.008940185546875,0.0024434609804302454,-0.02076941914856434,0.006108652334660292
1781789743306932200,12.02493212890625,0.003054326167330146,-0.022602014243602753,0.00855211354792118
1781789743322917000,12.040917236328125,0.004886921960860491,-0.02076941914856434,0.00855211354792118
1781789743338904600,12.056904541015625,0.00366519158706069,-0.022602014243602753,0.00733038317412138
1781789743354891300,12.072891357421875,0.00366519158706069,-0.02076941914856434,0.007941247895359993
1781789743370881000,12.088881103515625,0.003054326167330146,-0.02015855349600315,0.006108652334660292
1781789743386868500,12.104868408203124,0.00366519158706069,-0.021380282938480377,0.007941247895359993
1781789743402858200,12.120858154296876,0.00366519158706069,-0.021380282938480377,0.009773843921720982
1781789743418850000,12.13685009765625,0.0024434609804302454,-0.02015855349600315,0.007941247895359993
1781789743434840600,12.152840576171876,0.0024434609804302454,-0.019547687843441963,0.00733038317412138
1781789743450833700,12.168833740234374,0.0024434609804302454,-0.02076941914856434,0.00733038317412138
1781789743466820600,12.184820556640625,0.001832595793530345,-0.02015855349600315,0.005497787147760391
1781789743482809300,12.200809326171875,0.003054326167330146,-0.021380282938480377,0.00733038317412138
1781789743498795000,12.216794921875,0.003054326167330146,-0.02015855349600315,0.009162978269159794
1781789743514781000,12.232781005859374,0.004886921960860491,-0.02015855349600315,0.006108652334660292
1781789743530768000,12.248767822265625,0.00366519158706069,-0.02015855349600315,0.006719517521560192
1781789743546754300,12.26475439453125,0.004886921960860491,-0.021380282938480377,0.007941247895359993
1781789743562743600,12.28074365234375,0.003054326167330146,-0.02076941914856434,0.00733038317412138
1781789743578742300,12.2967421875,0.00366519158706069,-0.022602014243602753,0.007941247895359993
1781789743594735400,12.3127353515625,0.00366519158706069,-0.021991148591041565,0.00855211354792118
1781789743610729500,12.3287294921875,0.0024434609804302454,-0.02076941914856434,0.005497787147760391
1781789743626722300,12.344722412109375,0.003054326167330146,-0.021380282938480377,0.00733038317412138
1781789743642710800,12.360710693359374,0.00427605677396059,-0.022602014243602753,0.007941247895359993
1781789743658696000,12.376696044921875,0.003054326167330146,-0.02015855349600315,0.00733038317412138
1781789743674687500,12.3926875,0.0024434609804302454,-0.02321287989616394,0.006719517521560192
1781789743690673700,12.408673583984376,0.003054326167330146,-0.021991148591041565,0.00855211354792118
1781789743706666200,12.424666259765624,0.0024434609804302454,-0.021991148591041565,0.006719517521560192
1781789743722654000,12.440654052734375,0.003054326167330146,-0.02076941914856434,0.00733038317412138
1781789743738644500,12.45664453125,0.0024434609804302454,-0.021380282938480377,0.00733038317412138
1781789743754638300,12.472638427734376,0.0024434609804302454,-0.02076941914856434,0.00733038317412138
1781789743770628600,12.488628662109376,0.00366519158706069,-0.02015855349600315,0.007941247895359993
1781789743786622700,12.504622802734374,0.003054326167330146,-0.02076941914856434,0.006719517521560192
1781789743802612000,12.520612060546876,0.003054326167330146,-0.021380282938480377,0.007941247895359993
1781789743818601200,12.536601318359375,0.00366519158706069,-0.022602014243602753,0.00855211354792118
1781789743834590500,12.552590576171875,0.003054326167330146,-0.02321287989616394,0.00855211354792118
1781789743850583000,12.5685830078125,0.00366519158706069,-0.021991148591041565,0.007941247895359993
1781789743866577000,12.584576904296876,0.0024434609804302454,-0.02076941914856434,0.00855211354792118
1781789743882572000,12.600572021484375,0.0024434609804302454,-0.018936822190880775,0.005497787147760391
1781789743898568000,12.61656787109375,0.003054326167330146,-0.02076941914856434,0.00733038317412138
1781789743914556400,12.632556396484375,0.0024434609804302454,-0.02015855349600315,0.007941247895359993
1781789743930547000,12.648546875,0.00427605677396059,-0.021380282938480377,0.006108652334660292
1781789743946536700,12.66453662109375,0.00427605677396059,-0.02076941914856434,0.009162978269159794
1781789743962528800,12.68052880859375,0.003054326167330146,-0.021380282938480377,0.007941247895359993
1781789743978513000,12.696512939453125,0.00427605677396059,-0.021380282938480377,0.00733038317412138
1781789743994500000,12.7125,0.001832595793530345,-0.02076941914856434,0.00733038317412138
1781789744010487300,12.7284873046875,0.00366519158706069,-0.021380282938480377,0.00733038317412138
1781789744026473000,12.744472900390624,0.00366519158706069,-0.022602014243602753,0.006719517521560192
1781789744042462200,12.760462158203126,0.003054326167330146,-0.022602014243602753,0.009162978269159794
1781789744058454300,12.776454345703126,0.001832595793530345,-0.02076941914856434,0.007941247895359993
1781789744074443500,12.792443603515625,0.003054326167330146,-0.02076941914856434,0.00855211354792118
1781789744090425600,12.808425537109375,0.00366519158706069,-0.02076941914856434,0.00733038317412138
1781789744106411000,12.824410888671874,0.00366519158706069,-0.021991148591041565,0.007941247895359993
1781789744122399500,12.8403994140625,0.0024434609804302454,-0.022602014243602753,0.007941247895359993
1781789744138385700,12.8563857421875,0.003054326167330146,-0.02015855349600315,0.00733038317412138
1781789744154375200,12.872375244140626,0.00427605677396059,-0.02321287989616394,0.006108652334660292
1781789744170367500,12.888367431640624,0.00366519158706069,-0.022602014243602753,0.00733038317412138
1781789744186359800,12.90435986328125,0.00427605677396059,-0.02015855349600315,0.00733038317412138
1781789744202352400,12.920352294921875,0.00427605677396059,-0.02076941914856434,0.007941247895359993
1781789744218342100,12.936342041015624,0.0024434609804302454,-0.022602014243602753,0.009162978269159794
1781789744234334200,12.952334228515625,0.0024434609804302454,-0.021991148591041565,0.00733038317412138
1781789744250327300,12.968327392578125,0.00366519158706069,-0.021991148591041565,0.00733038317412138
1781789744266323000,12.984322998046874,0.001832595793530345,-0.021380282938480377,0.00733038317412138
1781789744282321200,13.000321044921876,0.003054326167330146,-0.02015855349600315,0.00733038317412138
1781789744298307600,13.0163076171875,0.003054326167330146,-0.021380282938480377,0.007941247895359993
1781789744314299600,13.032299560546875,0.00366519158706069,-0.021380282938480377,0.00855211354792118
1781789744330295600,13.048295654296876,0.00366519158706069,-0.021991148591041565,0.007941247895359993
1781789744346294300,13.064294189453125,0.003054326167330146,-0.021380282938480377,0.006719517521560192
1781789744362286000,13.0802861328125,0.0024434609804302454,-0.02015855349600315,0.00733038317412138
1781789744378276400,13.0962763671875,0.00427605677396059,-0.021991148591041565,0.009162978269159794
1781789744394264800,13.112264892578125,0.00427605677396059,-0.021991148591041565,0.007941247895359993
1781789744410256600,13.128256591796875,0.00366519158706069,-0.021991148591041565,0.007941247895359993
1781789744426247400,13.144247314453125,0.003054326167330146,-0.021380282938480377,0.00733038317412138
1781789744442239700,13.16023974609375,0.00366519158706069,-0.021380282938480377,0.00733038317412138
1781789744458232000,13.176232177734375,0.0024434609804302454,-0.021380282938480377,0.006719517521560192
1781789744474232000,13.192232177734375,0.003054326167330146,-0.02076941914856434,0.005497787147760391
1781789744490225200,13.20822509765625,0.003054326167330146,-0.02076941914856434,0.00733038317412138
1781789744506213600,13.224213623046875,0.001832595793530345,-0.021380282938480377,0.007941247895359993
1781789744522199600,13.240199462890626,0.00366519158706069,-0.02076941914856434,0.009162978269159794
1781789744538188500,13.2561884765625,0.003054326167330146,-0.021991148591041565,0.00733038317412138
1781789744554183700,13.27218359375,0.00366519158706069,-0.02076941914856434,0.00733038317412138
1781789744570172700,13.288172607421876,0.003054326167330146,-0.021380282938480377,0.007941247895359993
1781789744586166500,13.30416650390625,0.003054326167330146,-0.02015855349600315,0.00733038317412138
1781789744602158000,13.320157958984375,0.00427605677396059,-0.02015855349600315,0.007941247895359993
1781789744618148000,13.336148193359374,0.0024434609804302454,-0.02076941914856434,0.006719517521560192
1781789744634135000,13.352135009765625,0.00366519158706069,-0.02076941914856434,0.007941247895359993
1781789744650123800,13.368123779296875,0.003054326167330146,-0.02015855349600315,0.006719517521560192
1781789744666113500,13.384113525390624,0.003054326167330146,-0.02076941914856434,0.006719517521560192
1781789744682098200,13.40009814453125,0.00427605677396059,-0.021380282938480377,0.00855211354792118
1781789744698086100,13.416086181640624,0.003054326167330146,-0.021380282938480377,0.006108652334660292
1781789744714071600,13.432071533203125,0.003054326167330146,-0.021991148591041565,0.006719517521560192
1781789744730052600,13.448052490234375,0.0024434609804302454,-0.02076941914856434,0.007941247895359993
1781789744746036200,13.4640361328125,0.00427605677396059,-0.022602014243602753,0.00733038317412138
1781789744762022000,13.48002197265625,0.003054326167330146,-0.021991148591041565,0.00855211354792118
1781789744778010600,13.4960107421875,0.0024434609804302454,-0.02076941914856434,0.007941247895359993
1781789744801991400,13.519991455078125,0.0024434609804302454,-0.021991148591041565,0.00855211354792118
1781789744817980200,13.535980224609375,0.00427605677396059,-0.022602014243602753,0.007941247895359993
1781789744833970700,13.551970703125,0.00366519158706069,-0.02321287989616394,0.00733038317412138
1781789744849961200,13.567961181640625,0.00427605677396059,-0.02076941914856434,0.007941247895359993
1781789744865956600,13.58395654296875,0.00427605677396059,-0.02076941914856434,0.007941247895359993
1781789744881948000,13.599947998046876,0.003054326167330146,-0.02076941914856434,0.006719517521560192
1781789744897944300,13.6159443359375,0.0024434609804302454,-0.021380282938480377,0.007941247895359993
1781789744913935600,13.631935546875,0.00427605677396059,-0.021991148591041565,0.006719517521560192
1781789744929932800,13.647932861328124,0.00366519158706069,-0.02076941914856434,0.00855211354792118
1781789744945931300,13.66393115234375,0.00427605677396059,-0.021380282938480377,0.007941247895359993
1781789744961932000,13.67993212890625,0.0024434609804302454,-0.019547687843441963,0.007941247895359993
1781789744977930800,13.6959306640625,0.0024434609804302454,-0.019547687843441963,0.009162978269159794
1781789744993923300,13.71192333984375,0.0024434609804302454,-0.02076941914856434,0.006108652334660292
1781789745009921800,13.727921875,0.00366519158706069,-0.02015855349600315,0.006719517521560192
1781789745025915000,13.743914794921874,0.003054326167330146,-0.02015855349600315,0.009773843921720982
1781789745041905000,13.75990478515625,0.00427605677396059,-0.021380282938480377,0.007941247895359993
1781789745057895200,13.775895263671876,0.00366519158706069,-0.02076941914856434,0.007941247895359993
1781789745073886700,13.79188671875,0.003054326167330146,-0.021380282938480377,0.006719517521560192
1781789745097874400,13.81587451171875,0.0024434609804302454,-0.02015855349600315,0.006719517521560192
1781789745121860600,13.839860595703126,0.003054326167330146,-0.021991148591041565,0.00855211354792118
1781789745137851100,13.85585107421875,0.003054326167330146,-0.02015855349600315,0.00733038317412138
1781789745153840000,13.871840087890625,0.00366519158706069,-0.021380282938480377,0.00733038317412138
1781789745169832200,13.887832275390625,0.003054326167330146,-0.02076941914856434,0.007941247895359993
1781789745185813800,13.903813720703125,0.00427605677396059,-0.021380282938480377,0.007941247895359993
1781789745201799400,13.91979931640625,0.00427605677396059,-0.021380282938480377,0.006719517521560192
1781789745217790700,13.935790771484376,0.003054326167330146,-0.02015855349600315,0.00855211354792118
1781789745233781000,13.951781005859376,0.0024434609804302454,-0.021380282938480377,0.00855211354792118
1781789745249771300,13.967771240234375,0.0024434609804302454,-0.02015855349600315,0.006719517521560192
1781789745265760500,13.983760498046875,0.00366519158706069,-0.022602014243602753,0.00733038317412138
1781789745281746700,13.99974658203125,0.0024434609804302454,-0.021991148591041565,0.006719517521560192
1781789745297735700,14.015735595703125,0.003054326167330146,-0.02076941914856434,0.006719517521560192
1781789745313721600,14.0317216796875,0.0024434609804302454,-0.021380282938480377,0.007941247895359993
1781789745329709300,14.047709228515625,0.00366519158706069,-0.02076941914856434,0.00855211354792118
1781789745345693200,14.063693115234376,0.00366519158706069,-0.021991148591041565,0.009162978269159794
1781789745361681400,14.079681396484375,0.003054326167330146,-0.021380282938480377,0.00733038317412138
1781789745377672000,14.095671875,0.001832595793530345,-0.02076941914856434,0.007941247895359993
1781789745393666600,14.11166650390625,0.00366519158706069,-0.02076941914856434,0.006108652334660292
1781789745409664500,14.12766455078125,0.00366519158706069,-0.021380282938480377,0.00733038317412138
1781789745425652200,14.14365234375,0.0024434609804302454,-0.021991148591041565,0.00733038317412138
1781789745441643500,14.1596435546875,0.00366519158706069,-0.021380282938480377,0.006719517521560192
1781789745457636600,14.17563671875,0.00427605677396059,-0.021991148591041565,0.00733038317412138
1781789745473622000,14.1916220703125,0.003054326167330146,-0.021991148591041565,0.00855211354792118
1781789745489611000,14.207611083984375,0.003054326167330146,-0.021380282938480377,0.007941247895359993
1781789745505599000,14.223598876953124,0.003054326167330146,-0.021380282938480377,0.00733038317412138
1781789745521587500,14.23958740234375,0.00366519158706069,-0.021380282938480377,0.00855211354792118
1781789745537575700,14.25557568359375,0.0024434609804302454,-0.02076941914856434,0.007941247895359993
1781789745553565400,14.2715654296875,0.00366519158706069,-0.021380282938480377,0.006719517521560192
1781789745569550800,14.28755078125,0.003054326167330146,-0.021380282938480377,0.00855211354792118
1781789745585540600,14.30354052734375,0.003054326167330146,-0.021380282938480377,0.00855211354792118
1781789745601523000,14.31952294921875,0.00366519158706069,-0.021991148591041565,0.007941247895359993
1781789745617508600,14.335508544921876,0.00427605677396059,-0.02321287989616394,0.00855211354792118
1781789745633497900,14.351497802734375,0.00427605677396059,-0.021991148591041565,0.00733038317412138
1781789745649487400,14.3674873046875,0.00366519158706069,-0.02015855349600315,0.006108652334660292
1781789745665480700,14.383480712890625,0.003054326167330146,-0.021991148591041565,0.006108652334660292
1781789745681475600,14.3994755859375,0.003054326167330146,-0.022602014243602753,0.007941247895359993
1781789745697465600,14.415465576171876,0.001832595793530345,-0.021380282938480377,0.009162978269159794
1781789745713454800,14.431454833984375,0.00366519158706069,-0.02076941914856434,0.007941247895359993
1781789745729444000,14.447444091796875,0.003054326167330146,-0.021991148591041565,0.00733038317412138
1781789745745435100,14.46343505859375,0.003054326167330146,-0.019547687843441963,0.006719517521560192
1781789745761421600,14.479421630859376,0.003054326167330146,-0.02321287989616394,0.006719517521560192
1781789745777409500,14.495409423828125,0.003054326167330146,-0.021380282938480377,0.006719517521560192
1781789745793395000,14.51139501953125,0.0024434609804302454,-0.021991148591041565,0.006108652334660292
1781789745809379000,14.527379150390624,0.00366519158706069,-0.02076941914856434,0.007941247895359993
1781789745825363000,14.543363037109375,0.00366519158706069,-0.019547687843441963,0.006719517521560192
1781789745841344000,14.559343994140624,0.003054326167330146,-0.02076941914856434,0.006719517521560192
1781789745857335000,14.5753349609375,0.0024434609804302454,-0.018936822190880775,0.006719517521560192
1781789745873329700,14.59132958984375,0.0024434609804302454,-0.021380282938480377,0.006719517521560192
1781789745889326800,14.607326904296874,0.00366519158706069,-0.021380282938480377,0.007941247895359993
1781789745905325300,14.6233251953125,0.00366519158706069,-0.02076941914856434,0.006108652334660292
1781789745921319400,14.6393193359375,0.003054326167330146,-0.02015855349600315,0.005497787147760391
1781789745937312800,14.655312744140625,0.00366519158706069,-0.018936822190880775,0.00733038317412138
1781789745953304000,14.671303955078125,0.0024434609804302454,-0.019547687843441963,0.006719517521560192
1781789745969301000,14.687301025390624,0.00366519158706069,-0.019547687843441963,0.004886921960860491
1781789745985296400,14.70329638671875,0.00427605677396059,-0.02076941914856434,0.00733038317412138
1781789746001289700,14.719289794921876,0.003054326167330146,-0.021380282938480377,0.007941247895359993
1781789746017282800,14.73528271484375,0.0024434609804302454,-0.021380282938480377,0.006719517521560192
1781789746033278200,14.7512783203125,0.00366519158706069,-0.02076941914856434,0.006719517521560192
1781789746049273000,14.767273193359374,0.00366519158706069,-0.019547687843441963,0.007941247895359993
1781789746065260800,14.7832607421875,0.0024434609804302454,-0.02015855349600315,0.00855211354792118
1781789746081253400,14.79925341796875,0.00366519158706069,-0.021380282938480377,0.007941247895359993
1781789746097245000,14.815244873046876,0.0024434609804302454,-0.021380282938480377,0.006719517521560192
1781789746113239300,14.8312392578125,0.0024434609804302454,-0.02076941914856434,0.00733038317412138
1781789746129236000,14.847236083984376,0.00366519158706069,-0.021380282938480377,0.007941247895359993
1781789746145232100,14.863232177734375,0.001832595793530345,-0.02076941914856434,0.006108652334660292
1781789746161231000,14.879231201171875,0.00366519158706069,-0.021991148591041565,0.006719517521560192
1781789746177230000,14.89522998046875,0.003054326167330146,-0.021380282938480377,0.005497787147760391
1781789746193227300,14.911227294921876,0.003054326167330146,-0.021380282938480377,0.006719517521560192
1781789746209222000,14.927221923828125,0.00366519158706069,-0.02015855349600315,0.00733038317412138
1781789746225219000,14.943218994140626,0.00366519158706069,-0.021380282938480377,0.00855211354792118
1781789746241214000,14.9592138671875,0.00366519158706069,-0.021991148591041565,0.007941247895359993
1781789746257212200,14.975212158203124,0.003054326167330146,-0.021991148591041565,0.00855211354792118
1781789746273203200,14.991203125,0.00366519158706069,-0.02015855349600315,0.006719517521560192
1781789746289193500,15.007193359375,0.003054326167330146,-0.02015855349600315,0.006719517521560192
1781789746305185300,15.023185302734374,0.0024434609804302454,-0.021380282938480377,0.00733038317412138
1781789746321183200,15.039183349609376,0.003054326167330146,-0.021380282938480377,0.006719517521560192
1781789746337175300,15.05517529296875,0.003054326167330146,-0.02076941914856434,0.00733038317412138
1781789746353170400,15.07117041015625,0.00427605677396059,-0.021380282938480377,0.009162978269159794
1781789746369162000,15.087161865234375,0.00366519158706069,-0.022602014243602753,0.006719517521560192
1781789746385148200,15.103148193359376,0.00366519158706069,-0.019547687843441963,0.007941247895359993
1781789746401139000,15.119138916015626,0.00366519158706069,-0.021991148591041565,0.007941247895359993
1781789746417132000,15.135132080078124,0.003054326167330146,-0.021380282938480377,0.00733038317412138
1781789746433128700,15.151128662109375,0.0024434609804302454,-0.019547687843441963,0.006719517521560192
1781789746449120000,15.1671201171875,0.00366519158706069,-0.021380282938480377,0.009162978269159794
1781789746465118000,15.183117919921875,0.003054326167330146,-0.02015855349600315,0.006719517521560192
1781789746481115400,15.199115478515624,0.00366519158706069,-0.021380282938480377,0.006719517521560192
1781789746497106400,15.2151064453125,0.00366519158706069,-0.021380282938480377,0.006719517521560192
1781789746513091600,15.231091552734375,0.00366519158706069,-0.021991148591041565,0.006108652334660292
1781789746529083100,15.247083251953125,0.0024434609804302454,-0.022602014243602753,0.007941247895359993
1781789746545068300,15.263068359375,0.00366519158706069,-0.021991148591041565,0.005497787147760391
1781789746561060000,15.27906005859375,0.0024434609804302454,-0.02015855349600315,0.007941247895359993
1781789746577052000,15.295052001953126,0.0024434609804302454,-0.02076941914856434,0.00733038317412138
1781789746593045500,15.31104541015625,0.003054326167330146,-0.02015855349600315,0.007941247895359993
1781789746609039600,15.32703955078125,0.0024434609804302454,-0.02015855349600315,0.007941247895359993
1781789746625030400,15.343030517578125,0.003054326167330146,-0.022602014243602753,0.006108652334660292
1781789746641016800,15.359016845703126,0.00366519158706069,-0.021380282938480377,0.00733038317412138
1781789746657007900,15.3750078125,0.003054326167330146,-0.021380282938480377,0.007941247895359993
1781789746673002500,15.39100244140625,0.00427605677396059,-0.021380282938480377,0.00855211354792118
1781789746688993500,15.40699365234375,0.003054326167330146,-0.02076941914856434,0.006719517521560192
1781789746704987000,15.42298681640625,0.003054326167330146,-0.021380282938480377,0.005497787147760391
1781789746720978200,15.438978271484375,0.00366519158706069,-0.021380282938480377,0.007941247895359993
1781789746736971300,15.45497119140625,0.0024434609804302454,-0.021380282938480377,0.006719517521560192
1781789746752964600,15.470964599609376,0.003054326167330146,-0.02076941914856434,0.007941247895359993
1781789746768958000,15.4869580078125,0.003054326167330146,-0.02076941914856434,0.00733038317412138
1781789746784949000,15.502948974609374,0.00366519158706069,-0.019547687843441963,0.00733038317412138
1781789746800948200,15.5189482421875,0.001832595793530345,-0.022602014243602753,0.00733038317412138
1781789746816945000,15.53494482421875,0.00427605677396059,-0.021380282938480377,0.009162978269159794
1781789746832939300,15.550939208984374,0.0024434609804302454,-0.02015855349600315,0.006719517521560192
1781789746848937000,15.56693701171875,0.0024434609804302454,-0.02015855349600315,0.00855211354792118
1781789746864927000,15.582927001953125,0.003054326167330146,-0.021991148591041565,0.007941247895359993
1781789746880916200,15.598916259765625,0.00366519158706069,-0.022602014243602753,0.005497787147760391
1781789746896909300,15.614909423828125,0.00366519158706069,-0.021380282938480377,0.007941247895359993
1781789746912898600,15.630898681640625,0.003054326167330146,-0.02076941914856434,0.006719517521560192
1781789746928886500,15.646886474609374,0.0024434609804302454,-0.018936822190880775,0.00733038317412138
1781789746944876300,15.662876220703126,0.00366519158706069,-0.02015855349600315,0.006719517521560192
1781789746960870100,15.6788701171875,0.0024434609804302454,-0.021380282938480377,0.007941247895359993
1781789746976856800,15.69485693359375,0.00366519158706069,-0.021991148591041565,0.00855211354792118
1781789746992843800,15.71084375,0.004886921960860491,-0.022602014243602753,0.00855211354792118
1781789747008835800,15.7268359375,0.0024434609804302454,-0.02076941914856434,0.006108652334660292
1781789747024835600,15.742835693359375,0.003054326167330146,-0.02076941914856434,0.006108652334660292
1781789747040831500,15.75883154296875,0.00427605677396059,-0.021991148591041565,0.006719517521560192
1781789747056823600,15.774823486328126,0.003054326167330146,-0.021380282938480377,0.00733038317412138
1781789747072813600,15.7908134765625,0.00366519158706069,-0.02076941914856434,0.007941247895359993
1781789747088809500,15.8068095703125,0.00366519158706069,-0.022602014243602753,0.006719517521560192
1781789747104799200,15.82279931640625,0.00427605677396059,-0.02015855349600315,0.00855211354792118
1781789747120785000,15.838784912109375,0.003054326167330146,-0.02015855349600315,0.009162978269159794
1781789747136776700,15.854776611328125,0.001832595793530345,-0.02076941914856434,0.00855211354792118
1781789747152762000,15.87076220703125,0.003054326167330146,-0.021991148591041565,0.007941247895359993
1781789747168750300,15.886750244140625,0.003054326167330146,-0.021991148591041565,0.007941247895359993
1781789747184737800,15.90273779296875,0.0024434609804302454,-0.02076941914856434,0.00855211354792118
1781789747200728000,15.91872802734375,0.00427605677396059,-0.02076941914856434,0.006108652334660292
1781789747216717800,15.9347177734375,0.00366519158706069,-0.021991148591041565,0.007941247895359993
1781789747232709000,15.950709228515626,0.00366519158706069,-0.02076941914856434,0.007941247895359993
1781789747248691700,15.966691650390626,0.00366519158706069,-0.021380282938480377,0.009162978269159794
1781789747264678100,15.98267822265625,0.003054326167330146,-0.02076941914856434,0.006719517521560192
1781789747280667000,15.9986669921875,0.00366519158706069,-0.021991148591041565,0.007941247895359993
1781789747296655000,16.014655029296875,0.003054326167330146,-0.02076941914856434,0.006719517521560192
1781789747312637200,16.03063720703125,0.00366519158706069,-0.021991148591041565,0.00733038317412138
1781789747328618500,16.046618408203123,0.00366519158706069,-0.021380282938480377,0.007941247895359993
1781789747344604000,16.06260400390625,0.00366519158706069,-0.021380282938480377,0.007941247895359993
1781789747360584400,16.07858447265625,0.003054326167330146,-0.02015855349600315,0.00855211354792118
1781789747376571000,16.09457080078125,0.003054326167330146,-0.021380282938480377,0.007941247895359993
1781789747392557000,16.11055712890625,0.003054326167330146,-0.02015855349600315,0.007941247895359993
1781789747408545000,16.126544921875,0.00366519158706069,-0.021380282938480377,0.007941247895359993
1781789747424535600,16.14253564453125,0.003054326167330146,-0.021380282938480377,0.00855211354792118
1781789747440523800,16.158523681640624,0.003054326167330146,-0.02076941914856434,0.006719517521560192
1781789747456514300,16.174514404296875,0.003054326167330146,-0.02015855349600315,0.00733038317412138
1781789747472500500,16.19050048828125,0.00366519158706069,-0.021380282938480377,0.009162978269159794
1781789747488486100,16.206486083984377,0.00427605677396059,-0.021380282938480377,0.00855211354792118
1781789747504471600,16.222471435546876,0.0024434609804302454,-0.022602014243602753,0.007941247895359993
1781789747520455000,16.238454833984374,0.003054326167330146,-0.02076941914856434,0.007941247895359993
1781789747536436500,16.2544365234375,0.003054326167330146,-0.021991148591041565,0.007941247895359993
1781789747552416800,16.270416748046873,0.0024434609804302454,-0.021991148591041565,0.006719517521560192
1781789747568401400,16.2864013671875,0.00366519158706069,-0.021380282938480377,0.00855211354792118
1781789747584390400,16.302390380859375,0.00366519158706069,-0.021380282938480377,0.006719517521560192
1781789747600373000,16.318373046875,0.00366519158706069,-0.02015855349600315,0.006108652334660292
1781789747616355600,16.33435546875,0.00366519158706069,-0.021380282938480377,0.007941247895359993
1781789747632336100,16.350336181640625,0.0024434609804302454,-0.021991148591041565,0.006719517521560192
1781789747648316000,16.36631591796875,0.00427605677396059,-0.021991148591041565,0.006719517521560192
1781789747664291000,16.382291015625,0.003054326167330146,-0.022602014243602753,0.007941247895359993
1781789747680276200,16.398276123046877,0.00366519158706069,-0.02015855349600315,0.00855211354792118
1781789747696256500,16.414256591796875,0.0024434609804302454,-0.02321287989616394,0.006719517521560192
1781789747712240600,16.43024072265625,0.003054326167330146,-0.021991148591041565,0.007941247895359993
1781789747728226300,16.446226318359376,0.003054326167330146,-0.02076941914856434,0.009162978269159794
1781789747744210000,16.4622099609375,0.003054326167330146,-0.021991148591041565,0.00733038317412138
1781789747760200000,16.478199951171874,0.00427605677396059,-0.021380282938480377,0.009162978269159794
1781789747776186000,16.49418603515625,0.003054326167330146,-0.02015855349600315,0.006108652334660292
1781789747792170000,16.510169921875,0.00366519158706069,-0.021991148591041565,0.006719517521560192
1781789747808155100,16.526155029296874,0.003054326167330146,-0.02015855349600315,0.007941247895359993
1781789747824141000,16.54214111328125,0.00366519158706069,-0.019547687843441963,0.006719517521560192
1781789747840129500,16.558129638671875,0.00366519158706069,-0.021380282938480377,0.006108652334660292
1781789747856116000,16.574115966796874,0.0024434609804302454,-0.021380282938480377,0.00733038317412138
1781789747872102700,16.5901025390625,0.00366519158706069,-0.018936822190880775,0.00855211354792118
1781789747888091100,16.606091064453125,0.00366519158706069,-0.021991148591041565,0.009773843921720982
1781789747904077600,16.62207763671875,0.00366519158706069,-0.02076941914856434,0.006719517521560192
1781789747920059400,16.638059326171874,0.00427605677396059,-0.02076941914856434,0.00733038317412138
1781789747936043000,16.65404296875,0.00366519158706069,-0.021380282938480377,0.007941247895359993
1781789747952028200,16.670028076171874,0.00366519158706069,-0.021991148591041565,0.00733038317412138
1781789747968012000,16.686011962890625,0.00366519158706069,-0.02015855349600315,0.007941247895359993
1781789747983999500,16.70199951171875,0.003054326167330146,-0.021380282938480377,0.007941247895359993
1781789747999979000,16.71797900390625,0.003054326167330146,-0.021380282938480377,0.009162978269159794
1781789748015963000,16.733962890625,0.003054326167330146,-0.02076941914856434,0.00733038317412138
1781789748031950000,16.7499501953125,0.00366519158706069,-0.02015855349600315,0.00733038317412138
1781789748047933200,16.76593310546875,0.00366519158706069,-0.02076941914856434,0.00855211354792118
1781789748063914500,16.78191455078125,0.003054326167330146,-0.022602014243602753,0.007941247895359993
1781789748079886000,16.797885986328126,0.003054326167330146,-0.02015855349600315,0.00855211354792118
1781789748095868000,16.813867919921876,0.003054326167330146,-0.02076941914856434,0.007941247895359993
1781789748111851300,16.829851318359374,0.003054326167330146,-0.02076941914856434,0.00733038317412138
1781789748127835100,16.845835205078124,0.003054326167330146,-0.021991148591041565,0.00733038317412138
1781789748143821600,16.861821533203123,0.0024434609804302454,-0.02382374368607998,0.006108652334660292
1781789748159807200,16.87780712890625,0.003054326167330146,-0.021380282938480377,0.007941247895359993
1781789748175788500,16.89378857421875,0.00366519158706069,-0.02076941914856434,0.00855211354792118
1781789748191767800,16.909767822265625,0.00366519158706069,-0.021991148591041565,0.007941247895359993
1781789748207752400,16.92575244140625,0.003054326167330146,-0.021380282938480377,0.007941247895359993
1781789748223735800,16.94173583984375,0.00366519158706069,-0.021380282938480377,0.007941247895359993
1781789748239718400,16.957718505859376,0.003054326167330146,-0.021380282938480377,0.006719517521560192
1781789748255700200,16.9737001953125,0.00366519158706069,-0.021991148591041565,0.00733038317412138
1781789748271678200,16.98967822265625,0.00366519158706069,-0.019547687843441963,0.006719517521560192
1781789748287655200,17.0056552734375,0.00366519158706069,-0.021380282938480377,0.00855211354792118
1781789748303634200,17.02163427734375,0.00366519158706069,-0.021991148591041565,0.00733038317412138
1781789748319615700,17.03761572265625,0.00366519158706069,-0.02076941914856434,0.009162978269159794
1781789748335591000,17.0535908203125,0.00366519158706069,-0.021380282938480377,0.006719517521560192
1781789748351571500,17.069571533203124,0.00427605677396059,-0.021380282938480377,0.00733038317412138
1781789748367551700,17.0855517578125,0.00366519158706069,-0.021991148591041565,0.00733038317412138
1781789748383529700,17.10152978515625,0.003054326167330146,-0.02076941914856434,0.007941247895359993
1781789748399508700,17.1175087890625,0.00366519158706069,-0.019547687843441963,0.00733038317412138
1781789748415490000,17.133489990234374,0.00366519158706069,-0.021991148591041565,0.00733038317412138
1781789748431468500,17.149468505859375,0.004886921960860491,-0.019547687843441963,0.007941247895359993
1781789748447442400,17.1654423828125,0.003054326167330146,-0.02015855349600315,0.006719517521560192
1781789748463419000,17.1814189453125,0.0024434609804302454,-0.021991148591041565,0.007941247895359993
1781789748479394800,17.197394775390624,0.004886921960860491,-0.02076941914856434,0.007941247895359993
1781789748495365600,17.21336572265625,0.004886921960860491,-0.02076941914856434,0.00733038317412138
1781789748511341300,17.22934130859375,0.00366519158706069,-0.021380282938480377,0.00733038317412138
1781789748527319300,17.2453193359375,0.003054326167330146,-0.021991148591041565,0.00733038317412138
1781789748543297500,17.261297607421874,0.00427605677396059,-0.022602014243602753,0.007941247895359993
1781789748559273000,17.27727294921875,0.00366519158706069,-0.022602014243602753,0.007941247895359993
1781789748575245000,17.2932451171875,0.0024434609804302454,-0.021991148591041565,0.00733038317412138
1781789748591217000,17.309216796875,0.00427605677396059,-0.02076941914856434,0.007941247895359993
1781789748607190800,17.325190673828125,0.001832595793530345,-0.021380282938480377,0.00733038317412138
1781789748623166700,17.341166748046874,0.003054326167330146,-0.021991148591041565,0.00855211354792118
1781789748639138600,17.357138671875,0.004886921960860491,-0.019547687843441963,0.006719517521560192
1781789748655113500,17.373113525390625,0.003054326167330146,-0.02015855349600315,0.00733038317412138
1781789748671091000,17.389091064453126,0.00366519158706069,-0.021380282938480377,0.006108652334660292
1781789748687067400,17.4050673828125,0.004886921960860491,-0.02015855349600315,0.00733038317412138
1781789748703046700,17.421046630859376,0.003054326167330146,-0.02076941914856434,0.006719517521560192
1781789748719028500,17.437028564453126,0.0024434609804302454,-0.022602014243602753,0.006108652334660292
1781789748735007500,17.453007568359375,0.0024434609804302454,-0.021380282938480377,0.00733038317412138
1781789748750987000,17.468987060546876,0.003054326167330146,-0.019547687843441963,0.006719517521560192
1781789748766965800,17.4849658203125,0.00366519158706069,-0.021380282938480377,0.00733038317412138
1781789748782946000,17.500946044921875,0.003054326167330146,-0.02015855349600315,0.006108652334660292
1781789748798919200,17.516919189453127,0.00366519158706069,-0.02015855349600315,0.007941247895359993
1781789748814891800,17.532891845703126,0.00366519158706069,-0.02015855349600315,0.00733038317412138
1781789748830867500,17.548867431640623,0.00366519158706069,-0.02015855349600315,0.007941247895359993
1781789748846844200,17.56484423828125,0.00366519158706069,-0.021380282938480377,0.00733038317412138
1781789748862816800,17.580816650390624,0.003054326167330146,-0.022602014243602753,0.006719517521560192
1781789748878792000,17.5967919921875,0.0024434609804302454,-0.02321287989616394,0.007941247895359993
1781789748894767400,17.612767333984376,0.00366519158706069,-0.021991148591041565,0.00733038317412138
1781789748910739000,17.628739013671876,0.003054326167330146,-0.02076941914856434,0.007941247895359993
1781789748926709200,17.644709228515627,0.00427605677396059,-0.021991148591041565,0.00733038317412138
1781789748942678300,17.66067822265625,0.00366519158706069,-0.02076941914856434,0.00733038317412138
1781789748958652700,17.676652587890626,0.00427605677396059,-0.02076941914856434,0.00733038317412138
1781789748974626000,17.6926259765625,0.0024434609804302454,-0.02076941914856434,0.00733038317412138
1781789748998583300,17.716583251953125,0.003054326167330146,-0.02015855349600315,0.007941247895359993
1781789749014559200,17.732559326171874,0.00427605677396059,-0.02076941914856434,0.006719517521560192
1781789749030540300,17.748540283203123,0.00366519158706069,-0.022602014243602753,0.00733038317412138
1781789749046512400,17.764512451171875,0.00427605677396059,-0.018936822190880775,0.009162978269159794
1781789749062478000,17.78047802734375,0.0024434609804302454,-0.021380282938480377,0.006719517521560192
1781789749078447000,17.796447021484376,0.004886921960860491,-0.02015855349600315,0.006719517521560192
1781789749094418700,17.812418701171875,0.003054326167330146,-0.021991148591041565,0.006719517521560192
1781789749110388000,17.828387939453126,0.00427605677396059,-0.021380282938480377,0.007941247895359993
1781789749126362600,17.844362548828126,0.003054326167330146,-0.02076941914856434,0.00733038317412138
1781789749142341600,17.860341552734376,0.003054326167330146,-0.02015855349600315,0.006719517521560192
1781789749158319000,17.876319091796876,0.004886921960860491,-0.02321287989616394,0.00855211354792118
1781789749174299400,17.89229931640625,0.0024434609804302454,-0.021380282938480377,0.00733038317412138
1781789749190283500,17.908283447265624,0.0024434609804302454,-0.02076941914856434,0.005497787147760391
1781789749206259500,17.924259521484377,0.003054326167330146,-0.02076941914856434,0.00855211354792118
1781789749222237700,17.94023779296875,0.00366519158706069,-0.02015855349600315,0.007941247895359993
1781789749238221000,17.956220947265624,0.003054326167330146,-0.021380282938480377,0.00733038317412138
1781789749254195700,17.97219580078125,0.00366519158706069,-0.021991148591041565,0.006719517521560192
1781789749270173400,17.98817333984375,0.00427605677396059,-0.021380282938480377,0.007941247895359993
1781789749286154200,18.004154296875,0.00366519158706069,-0.02076941914856434,0.00733038317412138
1781789749302131000,18.020130859375,0.003054326167330146,-0.021991148591041565,0.00733038317412138
1781789749318102300,18.036102294921875,0.00366519158706069,-0.02076941914856434,0.00733038317412138
1781789749334073600,18.052073486328126,0.00366519158706069,-0.02015855349600315,0.007941247895359993
1781789749350051000,18.068051025390623,0.004886921960860491,-0.02015855349600315,0.006719517521560192
1781789749366030300,18.0840302734375,0.001832595793530345,-0.021991148591041565,0.006719517521560192
1781789749382008800,18.1000087890625,0.003054326167330146,-0.010995574295520782,0.010995574295520782
1781789749397992700,18.11599267578125,0.0024434609804302454,-0.010995574295520782,0.014049900695681572
1781789749413975600,18.1319755859375,0.0024434609804302454,-0.014049900695681572,0.01038470957428217
1781789749429955300,18.147955322265624,0.003054326167330146,-0.004886921960860491,0.015271631069481373
1781789749445929000,18.163928955078124,0.00366519158706069,-0.010995574295520782,0.012217304669320583
1781789749461901000,18.179901123046875,0.00366519158706069,-0.04703662544488907,-0.004886921960860491
1781789749477873400,18.195873291015626,0.004886921960860491,-0.05253441259264946,-0.01038470957428217
1781789749493843000,18.211843017578126,0.003054326167330146,-0.009162978269159794,0.016493361443281174
1781789749509817600,18.227817626953126,0.00366519158706069,-0.022602014243602753,0.006719517521560192
1781789749525784800,18.243784912109376,0.00427605677396059,-0.02626720629632473,0.004886921960860491
1781789749541755100,18.259755126953124,0.00366519158706069,-0.019547687843441963,0.009773843921720982
1781789749557728800,18.275728759765624,0.0024434609804302454,-0.024434609338641167,0.006719517521560192
1781789749573706800,18.291706787109376,0.00366519158706069,-0.02015855349600315,0.006108652334660292
1781789749589681700,18.307681640625,0.00366519158706069,-0.02015855349600315,0.00855211354792118
1781789749605657000,18.323656982421873,0.003054326167330146,-0.021380282938480377,0.006719517521560192
1781789749621633000,18.339633056640626,0.00366519158706069,-0.02015855349600315,0.00855211354792118
1781789749637609500,18.355609375,0.00366519158706069,-0.021380282938480377,0.005497787147760391
1781789749653584600,18.371584716796875,0.00366519158706069,-0.02076941914856434,0.00733038317412138
1781789749669561900,18.387561767578124,0.00366519158706069,-0.021380282938480377,0.00733038317412138
1781789749685534000,18.403533935546875,0.001832595793530345,-0.021991148591041565,0.00733038317412138
1781789749701507600,18.419507568359375,0.0024434609804302454,-0.021991148591041565,0.006108652334660292
1781789749717477400,18.435477294921874,0.003054326167330146,-0.02015855349600315,0.006719517521560192
1781789749733452000,18.4514521484375,0.003054326167330146,-0.02076941914856434,0.006108652334660292
1781789749749426700,18.4674267578125,0.001832595793530345,-0.019547687843441963,0.006719517521560192
1781789749765397200,18.483397216796874,0.00427605677396059,-0.012217304669320583,0.00855211354792118
1781789749781365800,18.49936572265625,0.00366519158706069,0.021380282938480377,0.02871066704392433
1781789749797331500,18.51533154296875,0.0024434609804302454,0.018936822190880775,0.029932396486401558
1781789749813305000,18.53130517578125,0.003054326167330146,-0.019547687843441963,0.00855211354792118
1781789749829281800,18.54728173828125,0.001832595793530345,-0.02076941914856434,0.009773843921720982
1781789749845258200,18.56325830078125,0.003054326167330146,-0.039706241339445114,-0.00427605677396059
1781789749861237000,18.579237060546873,0.003054326167330146,-0.04459316283464432,-0.006719517521560192
1781789749877214500,18.59521435546875,0.00366519158706069,-0.04214970022439957,-0.00366519158706069
1781789749893192400,18.6111923828125,0.001832595793530345,-0.03237585723400116,0.0006108652451075613
1781789749909166600,18.62716650390625,0.003054326167330146,-0.02321287989616394,0.006719517521560192
1781789749925136100,18.64313623046875,0.0024434609804302454,-0.022602014243602753,0.006719517521560192
1781789749941101800,18.659101806640624,0.00366519158706069,-0.02321287989616394,0.006719517521560192
1781789749957071000,18.675071044921875,0.0024434609804302454,-0.02321287989616394,0.006108652334660292
1781789749973037300,18.691037353515625,0.00427605677396059,-0.021991148591041565,0.007941247895359993
1781789749989010200,18.70701025390625,0.003054326167330146,-0.022602014243602753,0.006108652334660292
1781789750004984300,18.722984375,0.00366519158706069,-0.021991148591041565,0.006108652334660292
1781789750020956400,18.738956298828125,0.003054326167330146,-0.021991148591041565,0.00855211354792118
1781789750036929500,18.754929443359377,0.00427605677396059,-0.021991148591041565,0.00733038317412138
1781789750052903200,18.770903076171876,0.00366519158706069,-0.021991148591041565,0.006108652334660292
1781789750068877300,18.786877197265625,0.00366519158706069,-0.024434609338641167,0.006108652334660292
1781789750084854800,18.802854736328126,0.00366519158706069,-0.02687807008624077,0.004886921960860491
1781789750100833000,18.8188330078125,0.00366519158706069,-0.02382374368607998,0.004886921960860491
1781789750116811500,18.8348115234375,0.003054326167330146,-0.029932396486401558,0.0024434609804302454
1781789750132783600,18.85078369140625,0.00427605677396059,-0.02321287989616394,0.00855211354792118
1781789750148760600,18.866760498046876,0.00366519158706069,-0.02382374368607998,0.005497787147760391
1781789750164734200,18.882734130859376,0.00366519158706069,-0.021380282938480377,0.00733038317412138
1781789750180713000,18.898712890625,0.003054326167330146,-0.01710422709584236,0.01038470957428217
1781789750196692700,18.914692626953126,0.00366519158706069,-0.01160643994808197,0.012828170321881771
1781789750212672800,18.9306728515625,0.00366519158706069,-0.015271631069481373,0.010995574295520782
1781789750228656000,18.94665625,0.0024434609804302454,-0.012828170321881771,0.012217304669320583
1781789750244634600,18.962634521484375,0.00366519158706069,-0.02015855349600315,0.009162978269159794
1781789750260611800,18.97861181640625,0.003054326167330146,-0.02015855349600315,0.009162978269159794
1781789750276586800,18.994586669921876,0.003054326167330146,-0.018325956538319588,0.009162978269159794
1781789750292563000,19.01056298828125,0.00366519158706069,-0.019547687843441963,0.01038470957428217
1781789750308539000,19.026538818359374,0.00366519158706069,-0.015271631069481373,0.01160643994808197
1781789750324506000,19.042506103515624,0.003054326167330146,-0.019547687843441963,0.006719517521560192
1781789750340480300,19.058480224609376,0.003054326167330146,-0.02076941914856434,0.00733038317412138
1781789750356456700,19.074456787109376,0.00366519158706069,-0.01771509274840355,0.01038470957428217
1781789750372434200,19.09043408203125,0.003054326167330146,-0.02015855349600315,0.006719517521560192
1781789750388408600,19.10640869140625,0.00366519158706069,-0.025045474991202354,0.005497787147760391
1781789750404384500,19.122384521484374,0.00427605677396059,-0.02321287989616394,0.00733038317412138
1781789750420356000,19.138356201171874,0.003054326167330146,-0.02076941914856434,0.009162978269159794
1781789750436329500,19.15432958984375,0.004886921960860491,-0.018936822190880775,0.007941247895359993
1781789750452304000,19.170303955078126,0.003054326167330146,-0.021380282938480377,0.006719517521560192
1781789750468275200,19.186275146484373,0.001832595793530345,-0.02382374368607998,0.006108652334660292
1781789750484245200,19.202245361328124,0.00366519158706069,-0.02076941914856434,0.007941247895359993
1781789750500225800,19.218225830078126,0.00366519158706069,-0.021991148591041565,0.006719517521560192
1781789750516191200,19.234191162109376,0.003054326167330146,-0.021380282938480377,0.004886921960860491
1781789750532162800,19.250162841796875,0.003054326167330146,-0.021380282938480377,0.009162978269159794
1781789750548137700,19.2661376953125,0.003054326167330146,-0.02076941914856434,0.009162978269159794
