time,seconds_elapsed,z,y,x
1781801311043157200,0.0911572265625,-0.8025479316711426,-0.4723854064941406,-0.15295827388763428
1781801311059166700,0.107166748046875,-1.0640664100646973,-0.5714554786682129,-0.127516508102417
1781801311075176000,0.123176025390625,-0.8739223480224609,-0.6214137077331543,-0.2498185634613037
1781801311091183000,0.13918310546875,-0.3542642593383789,-0.6086311340332031,-0.28324127197265625
1781801311107189200,0.155189208984375,0.1137542724609375,-0.6112232208251953,-0.21044957637786865
1781801311123196200,0.171196044921875,0.2543983459472656,-0.47927379608154297,0.12686550617218018
1781801311139196000,0.18719580078125,0.08713817596435547,-0.44482898712158203,0.33581840991973877
1781801311155201800,0.203201904296875,-0.3584785461425781,-0.6073577404022217,0.3331329822540283
1781801311171210200,0.219210205078125,-0.6422634124755859,-0.7225699424743652,0.2281513214111328
1781801311187222500,0.235222412109375,-0.37310123443603516,-0.6215839385986328,0.17207694053649902
1781801311203227000,0.251226806640625,0.3127412796020508,-0.491391658782959,0.3889756202697754
1781801311219236900,0.26723681640625,0.7401399612426758,-0.3188786506652832,0.6590876579284668
1781801311235239400,0.283239501953125,0.5843181610107422,-0.34392452239990234,0.6108756065368652
1781801311251245300,0.299245361328125,-2.0496788024902344,-1.8979345560073853,4.84942626953125
1781801311267253800,0.315253662109375,1.35638427734375,0.5098836421966553,-0.8052303791046143
1781801311283263200,0.33126318359375,1.339019775390625,-0.5457859039306641,-0.13431787490844727
1781801311299269000,0.34726904296875,1.436471939086914,-0.06667661666870117,-0.25543999671936035
1781801311315266000,0.36326611328125,1.228384017944336,-0.31248021125793457,-1.0240037441253662
1781801311331266600,0.3792666015625,1.591080665588379,-0.2600517272949219,-2.2952213287353516
1781801311347270000,0.395269775390625,1.654404640197754,0.10340118408203125,-1.5834834575653076
1781801311363274000,0.41127392578125,0.41979408264160156,0.4285461902618408,1.1176424026489258
1781801311379276500,0.427276611328125,-0.7385692596435547,0.5638875961303711,3.8147921562194824
1781801311395280600,0.44328076171875,-5.88438606262207,-1.018086314201355,3.183546781539917
1781801311411280400,0.4592802734375,0.26145362854003906,1.2036136388778687,3.5304653644561768
1781801311427281000,0.475281005859375,-0.053192138671875,0.8931546211242676,1.6541776657104492
1781801311443281000,0.491281005859375,0.008223533630371094,1.2246127128601074,1.2611896991729736
1781801311459282700,0.50728271484375,-0.5451297760009766,1.6041367053985596,0.7461439371109009
1781801311475290600,0.52329052734375,-0.205230712890625,0.8539373874664307,1.035500168800354
1781801311491295500,0.53929541015625,0.7562837600708008,0.15798699855804443,0.47231584787368774
1781801311507298800,0.555298828125,0.8179483413696289,0.273342490196228,0.5503126382827759
1781801311523304000,0.571303955078125,0.9411306381225586,2.180549144744873,-0.5877171754837036
1781801311539314700,0.587314697265625,-0.12330150604248047,0.1585249900817871,1.9789637327194214
1781801311555319300,0.6033193359375,0.9120111465454102,1.8898663520812988,0.2684786915779114
1781801311571319800,0.61931982421875,-0.6596698760986328,0.8739590644836426,1.0079472064971924
1781801311587313200,0.635313232421875,-0.9711370468139648,1.2843612432479858,1.4393377304077148
1781801311603312400,0.6513125,-0.5262508392333984,1.6595005989074707,0.5447072982788086
1781801311619308500,0.66730859375,-0.15874385833740234,1.1684749126434326,0.2660861611366272
1781801311635307800,0.683307861328125,-0.4357490539550781,0.6226129531860352,0.6618906855583191
1781801311651305200,0.69930517578125,-0.1861419677734375,0.74471116065979,0.40350407361984253
1781801311667299000,0.715299072265625,-0.4114189147949219,0.33466577529907227,0.7225198745727539
1781801311683292200,0.731292236328125,0.05939960479736328,0.3051323890686035,0.5819923877716064
1781801311699291600,0.747291748046875,0.17722511291503906,0.1141211986541748,0.32211196422576904
1781801311715289600,0.76328955078125,0.13389873504638672,-0.09858059883117676,0.3802724778652191
1781801311731292700,0.779292724609375,0.5563869476318359,-0.12038016319274902,-0.1619407832622528
1781801311747303000,0.795302978515625,3.941290855407715,-1.5260939598083496,0.4998137354850769
1781801311763312600,0.811312744140625,0.0119781494140625,-0.2610042095184326,-0.357575923204422
1781801311779323000,0.827322998046875,-0.12849807739257812,-1.0066708326339722,0.06584489345550537
1781801311795331000,0.8433310546875,-0.0711355209350586,-0.9323177337646484,0.16376939415931702
1781801311811344100,0.85934423828125,-0.20925235748291016,-0.9193006753921509,0.21616747975349426
1781801311827355400,0.87535546875,-0.5833902359008789,-0.6041749715805054,0.379923939704895
1781801311843364000,0.891364013671875,-0.2600889205932617,-0.6455180644989014,0.40139323472976685
1781801311859376400,0.90737646484375,-0.38147640228271484,-0.6362900733947754,0.3370433747768402
1781801311875383800,0.9233837890625,-0.8656673431396484,-0.3799571990966797,0.33534300327301025
1781801311891386600,0.93938671875,-0.9315662384033203,-0.15944993495941162,0.059113532304763794
1781801311907391200,0.95539111328125,-0.24649524688720703,0.3996320962905884,-0.02818438410758972
1781801311923402000,0.971402099609375,-0.5587310791015625,0.6580661535263062,-1.145230770111084
1781801311939414300,0.987414306640625,0.4362659454345703,0.8899885416030884,-1.2107224464416504
1781801311955419100,1.003419189453125,-0.22847938537597656,0.8036576509475708,-0.5933784246444702
1781801311971421200,1.019421142578125,-0.6095237731933594,1.164142370223999,-0.45125845074653625
1781801311987430000,1.035429931640625,-0.750340461730957,1.289296269416809,-0.5440974235534668
1781801312003434800,1.051434814453125,-0.14322662353515625,0.9279735088348389,-0.5801579356193542
1781801312019437600,1.0674375,0.2723569869995117,0.3846890926361084,-0.2996401786804199
1781801312035441200,1.083441162109375,0.02463817596435547,0.14739185571670532,-0.2947477698326111
1781801312051441000,1.09944091796875,0.041912078857421875,0.5494988560676575,-0.04603877663612366
1781801312067438600,1.1154384765625,6.760978698730469,2.0424983501434326,2.900620698928833
1781801312083435800,1.131435791015625,0.4881782531738281,2.747199058532715,-2.580530881881714
1781801312099431700,1.147431640625,-2.2237353324890137,0.26441746950149536,0.39784425497055054
1781801312115428900,1.163428955078125,-0.28985595703125,-0.17113983631134033,0.3762474060058594
1781801312131435800,1.179435791015625,-0.4699993133544922,-0.48714229464530945,0.12016013264656067
1781801312147442000,1.19544189453125,0.7219152450561523,-0.312980592250824,0.29455679655075073
1781801312163444200,1.2114443359375,0.3879966735839844,-0.4453202486038208,-0.08442226052284241
1781801312179447600,1.227447509765625,-0.32704639434814453,-0.43877846002578735,-0.11426970362663269
1781801312195451100,1.243451171875,-0.5398702621459961,-0.3227083683013916,0.030951887369155884
1781801312211455200,1.259455322265625,-0.6547908782958984,-0.04600107669830322,-0.032208144664764404
1781801312227453000,1.275452880859375,2.970827102661133,-0.436726450920105,0.845437228679657
1781801312243452400,1.291452392578125,-0.29273414611816406,-0.039869725704193115,-0.3576498031616211
1781801312259448600,1.307448486328125,-0.39209651947021484,-0.12892486155033112,-0.07389500737190247
1781801312275445200,1.3234453125,0.24783611297607422,-0.2981738746166229,1.03162682056427
1781801312291447000,1.339447021484375,0.28989410400390625,-0.3935270309448242,0.8439721465110779
1781801312307448800,1.35544873046875,0.0931854248046875,-0.38346922397613525,0.860950231552124
1781801312323446000,1.371446044921875,-0.06503582000732422,-0.16503041982650757,0.20953236520290375
1781801312339449900,1.387449951171875,-0.012609481811523438,-0.19706398248672485,0.21812574565410614
1781801312355454700,1.403454833984375,-0.02003002166748047,-0.190890371799469,0.24108919501304626
1781801312371451600,1.41945166015625,-0.022665023803710938,-0.1773684024810791,0.21117255091667175
1781801312387452700,1.43545263671875,-0.02602672576904297,-0.16736164689064026,0.20802147686481476
1781801312403454000,1.451453857421875,-0.017187118530273438,-0.1625860333442688,0.20176057517528534
1781801312419452000,1.467451904296875,-0.010565757751464844,-0.1503649652004242,0.1707862764596939
1781801312435448300,1.4834482421875,-0.08045005798339844,-0.12778186798095703,0.19222509860992432
1781801312451448300,1.4994482421875,0.024504661560058594,-0.11566005647182465,0.16669923067092896
1781801312467451600,1.51545166015625,-0.040398597717285156,-0.06080830097198486,0.19788408279418945
1781801312483451100,1.531451171875,-0.004710197448730469,0.09962967038154602,0.3300713002681732
1781801312499447800,1.54744775390625,0.019151687622070312,0.2556723654270172,0.4925477206707001
1781801312515449000,1.563448974609375,-0.16281986236572266,-0.043553754687309265,0.18489611148834229
1781801312531452000,1.579451904296875,0.11007118225097656,-0.015773996710777283,0.3264363706111908
1781801312547453400,1.595453369140625,-0.100616455078125,-0.032496750354766846,0.27419114112854004
1781801312563456800,1.611456787109375,0.009451866149902344,-0.20007707178592682,0.01592627912759781
1781801312579462700,1.627462646484375,-0.014505386352539062,-0.25396525859832764,-0.1673806607723236
1781801312595467800,1.6434677734375,-0.11748218536376953,-0.4151517152786255,-0.3368673324584961
1781801312611469800,1.6594697265625,0.009284019470214844,-0.5152827501296997,-0.33757996559143066
1781801312627470600,1.675470703125,-0.07938480377197266,0.0032172054052352905,-0.25772392749786377
1781801312643471600,1.6914716796875,0.040259361267089844,0.056570038199424744,-0.5175201892852783
1781801312659467300,1.70746728515625,-0.019583702087402344,-0.0046869367361068726,-0.8226978182792664
1781801312675465500,1.723465576171875,0.1074380874633789,0.002938792109489441,-1.482837438583374
1781801312691462100,1.739462158203125,-0.14606094360351562,-0.2863684594631195,0.23945891857147217
1781801312707457000,1.75545703125,-0.13179588317871094,-0.6531197428703308,2.3405380249023438
1781801312723452000,1.771451904296875,-0.03369903564453125,-0.6115387678146362,0.7101835012435913
1781801312739446000,1.787446044921875,0.03560924530029297,-0.29219454526901245,0.2394203394651413
1781801312755439000,1.803439208984375,-0.012308120727539062,-0.20505061745643616,-0.07594799250364304
1781801312771441200,1.819441162109375,-0.17757129669189453,0.06943333148956299,0.18119701743125916
1781801312787439000,1.835439208984375,0.133575439453125,0.04248915612697601,0.6233165264129639
1781801312803442400,1.8514423828125,0.0043163299560546875,0.2219146341085434,0.4893958568572998
1781801312819444700,1.86744482421875,-0.12978363037109375,-0.05389885604381561,0.054180774837732315
1781801312835443200,1.883443115234375,-0.1035299301147461,-0.1238994225859642,0.17174270749092102
1781801312851438600,1.8994384765625,-1.607412338256836,0.057861119508743286,-0.18174877762794495
1781801312867437600,1.9154375,0.6213903427124023,-0.20407095551490784,0.41613104939460754
1781801312883434200,1.931434326171875,-0.45113658905029297,-0.04481310397386551,0.052830979228019714
1781801312899428600,1.9474287109375,0.14020633697509766,-0.10122103989124298,0.10839560627937317
1781801312915422000,1.963421875,0.04200553894042969,-0.07061488181352615,-0.016488991677761078
1781801312931411000,1.979410888671875,-0.10164546966552734,-0.08737247437238693,0.07722017168998718
1781801312947399000,1.99539892578125,0.0036754608154296875,-0.07896268367767334,0.12124262005090714
1781801312963397400,2.0113974609375,-0.020273208618164062,-0.07631316781044006,0.046538203954696655
1781801312979391500,2.0273916015625,-0.03464984893798828,-0.09247538447380066,0.07226445525884628
1781801312995385300,2.04338525390625,-0.025084495544433594,-0.08704791218042374,0.08370313048362732
1781801313011375400,2.059375244140625,-0.027486801147460938,-0.07699280977249146,0.07585038989782333
1781801313027373000,2.075373046875,-0.017937660217285156,-0.09708348661661148,0.08843435347080231
1781801313043371800,2.091371826171875,-0.02037811279296875,-0.0754280686378479,0.07146507501602173
1781801313059371300,2.107371337890625,-0.027597427368164062,-0.04937378317117691,0.06442546844482422
1781801313075371000,2.12337109375,-0.025238037109375,-0.08087180554866791,0.06939215958118439
1781801313091372300,2.139372314453125,-0.02287769317626953,-0.08597765862941742,0.05793873965740204
1781801313107377400,2.15537744140625,-0.027696609497070312,-0.048118218779563904,0.053889889270067215
1781801313123382300,2.17138232421875,-0.03252601623535156,-0.07425950467586517,0.06332030892372131
1781801313139386000,2.18738623046875,-0.013426780700683594,-0.08266585320234299,0.06468479335308075
1781801313155393000,2.20339306640625,-0.035019874572753906,-0.055562764406204224,0.033404894173145294
1781801313171401000,2.21940087890625,-0.025478363037109375,-0.060198865830898285,0.06190498173236847
1781801313187408000,2.235407958984375,-0.018329620361328125,-0.06241849064826965,0.052314627915620804
1781801313203415300,2.251415283203125,-0.008784294128417969,-0.055232077836990356,0.016823455691337585
1781801313219420700,2.267420654296875,-0.03036022186279297,-0.0578002855181694,0.04169502854347229
1781801313235421200,2.283421142578125,-0.008837699890136719,-0.05328918993473053,0.05691855028271675
1781801313251422700,2.299422607421875,-0.008858680725097656,-0.044403791427612305,0.033887606114149094
1781801313267430000,2.315429931640625,-0.02324199676513672,-0.05478604882955551,0.03958950564265251
1781801313283429000,2.33142919921875,-0.020864486694335938,-0.04614197462797165,0.05494581162929535
1781801313299431000,2.347430908203125,-0.03524589538574219,-0.03269881755113602,0.036761574447155
1781801313315434200,2.363434326171875,-0.032867431640625,-0.05520852282643318,0.04034553840756416
1781801313331438300,2.379438232421875,-0.030485153198242188,-0.03964817523956299,0.03433166816830635
1781801313347445500,2.395445556640625,-0.020917892456054688,-0.029124632477760315,0.03308434411883354
1781801313363450000,2.4114501953125,-0.020926475524902344,-0.04728207737207413,0.03655744716525078
1781801313379455000,2.427455078125,-0.030516624450683594,-0.03640376776456833,0.04026414453983307
1781801313395463000,2.443462890625,-0.018556594848632812,-0.02809716761112213,0.04641653969883919
1781801313411466000,2.459466064453125,-0.037718772888183594,-0.04142224043607712,0.045322638005018234
1781801313427466800,2.475466796875,-0.023360252380371094,-0.031025782227516174,0.02513543702661991
1781801313443469300,2.49146923828125,-0.032944679260253906,-0.03023223578929901,0.02194531075656414
1781801313459467500,2.507467529296875,-0.011406898498535156,-0.04119116812944412,0.03553498536348343
1781801313475467800,2.5234677734375,-0.030564308166503906,-0.03345366567373276,0.01817701943218708
1781801313491465000,2.53946484375,-0.01859760284423828,-0.02813137322664261,0.015259264037013054
1781801313507467500,2.555467529296875,-0.01860332489013672,-0.02748733013868332,0.03146551549434662
1781801313523467800,2.5714677734375,-0.02818584442138672,-0.0339646190404892,0.03316078707575798
1781801313539468500,2.587468505859375,-0.02819061279296875,-0.0309799462556839,0.027865281328558922
1781801313555465500,2.603465576171875,-0.03298377990722656,-0.023295484483242035,0.025061698630452156
1781801313571456300,2.619456298828125,-0.035381317138671875,-0.032408781349658966,0.024498632177710533
1781801313587451600,2.63545166015625,-0.03299140930175781,-0.02229514718055725,0.028826003894209862
1781801313603453200,2.651453125,-0.02581310272216797,-0.016898028552532196,0.028181131929159164
1781801313619452400,2.667452392578125,-0.025816917419433594,-0.021235719323158264,0.030130675062537193
1781801313635450000,2.6834501953125,-0.02582073211669922,-0.03025227040052414,0.031907498836517334
1781801313651453700,2.69945361328125,-0.018642425537109375,-0.029573582112789154,0.019332734867930412
1781801313667451000,2.715450927734375,-0.021040916442871094,-0.01949557662010193,0.018780793994665146
1781801313683447600,2.731447509765625,-0.03540992736816406,-0.038192588835954666,0.025642862543463707
1781801313699453200,2.747453125,-0.01625823974609375,-0.018787212669849396,0.013355467468500137
1781801313715457000,2.76345703125,-0.02823162078857422,-0.03274429589509964,0.017850998789072037
1781801313731458800,2.779458740234375,-0.028234481811523438,-0.022716186940670013,0.012761246412992477
1781801313747458300,2.795458251953125,-0.030632972717285156,-0.01995326578617096,0.015075495466589928
1781801313763457800,2.811457763671875,-0.03542327880859375,-0.02209559828042984,0.021941229701042175
1781801313779469800,2.8274697265625,-0.009088516235351562,-0.02425062656402588,0.024136774241924286
1781801313795471000,2.84347119140625,-0.033031463623046875,-0.009724296629428864,0.021603936329483986
1781801313811473000,2.859472900390625,-0.01866626739501953,-0.03116457909345627,0.014328744262456894
1781801313827483100,2.875483154296875,-0.03303241729736328,-0.02137664705514908,0.006756724789738655
1781801313843491000,2.891490966796875,-0.03542804718017578,-0.021237507462501526,0.008945532143115997
1781801313859494400,2.907494384765625,-0.018670082092285156,-0.018678762018680573,0.025772012770175934
1781801313875493600,2.92349365234375,-0.03064441680908203,-0.025509096682071686,0.02321135252714157
1781801313891502600,2.939502685546875,-0.03303813934326172,-0.025394022464752197,0.023019062355160713
1781801313907509800,2.955509765625,-0.02825164794921875,-0.027391910552978516,0.024872414767742157
1781801313923516000,2.971515869140625,-0.021073341369628906,-0.02446034550666809,0.026948628947138786
1781801313939519500,2.98751953125,-0.025862693786621094,-0.029072940349578857,0.02886180765926838
1781801313955527200,3.003527099609375,-0.02107715606689453,-0.02140941470861435,0.02373914048075676
1781801313971527400,3.01952734375,-0.01868152618408203,-0.01890236884355545,0.015932943671941757
1781801313987530000,3.035530029296875,-0.033046722412109375,-0.021175988018512726,0.027692295610904694
1781801314003535000,3.05153515625,-0.03544425964355469,-0.023210778832435608,0.015311922878026962
1781801314019538200,3.0675380859375,-0.025869369506835938,-0.02052152156829834,0.019774697721004486
1781801314035543000,3.08354296875,-0.021080970764160156,-0.032257359474897385,0.0074011459946632385
1781801314051554300,3.09955419921875,-0.013899803161621094,-0.024787984788417816,0.014215338975191116
1781801314067566600,3.115566650390625,-0.011508941650390625,-0.014879569411277771,0.004691030830144882
1781801314083572500,3.131572509765625,-0.00911712646484375,-0.014558978378772736,0.004637673497200012
1781801314099583700,3.147583740234375,-0.01869487762451172,-0.016727551817893982,0.01399138942360878
1781801314115594500,3.163594482421875,-0.04024505615234375,-0.016443736851215363,0.008772455155849457
1781801314131610000,3.179610107421875,-0.035457611083984375,-0.016164593398571014,-0.0010728389024734497
1781801314147625700,3.195625732421875,-0.045035362243652344,-0.013702988624572754,0.020452644675970078
1781801314163636000,3.211635986328125,-0.0330657958984375,-0.02051718533039093,0.03459439054131508
1781801314179653600,3.227653564453125,-0.0067310333251953125,-0.02293165773153305,0.03241787105798721
1781801314195666400,3.24366650390625,-0.030671119689941406,-0.02612898498773575,0.019680414348840714
1781801314211680800,3.2596806640625,-0.025879859924316406,-0.01301613450050354,0.014855539426207542
1781801314227703300,3.275703369140625,-0.03784751892089844,-0.018392197787761688,0.011144835501909256
1781801314243723800,3.291723876953125,-0.03066539764404297,-0.016091614961624146,0.01844325289130211
1781801314259743200,3.3077431640625,-0.023484230041503906,-0.018349871039390564,0.009107809513807297
1781801314275763200,3.32376318359375,-0.021091461181640625,-0.00844709575176239,0.010921258479356766
1781801314291781400,3.339781494140625,-0.033064842224121094,-0.01994141936302185,0.003056678920984268
1781801314307791600,3.35579150390625,-0.021096229553222656,-0.009835787117481232,0.002043459564447403
1781801314323797000,3.371796875,-0.035462379455566406,-0.014277227222919464,0.004290379583835602
1781801314339809500,3.3878095703125,-0.030675888061523438,-0.00926642119884491,0.004006002098321915
1781801314355825000,3.403824951171875,-0.011521339416503906,-0.00944838672876358,0.02816106006503105
1781801314371834000,3.419834228515625,-0.04743671417236328,-0.0062409862875938416,0.024466581642627716
1781801314387842600,3.435842529296875,-0.04025840759277344,-0.0025826916098594666,0.017424900084733963
1781801314403853800,3.451853759765625,-0.025896072387695312,-0.0011287033557891846,-0.00429563969373703
1781801314419863800,3.46786376953125,-0.018716812133789062,-0.006346091628074646,-0.009989209473133087
1781801314435873800,3.483873779296875,0.14888477325439453,0.026085928082466125,0.060523055493831635
1781801314451881000,3.499880859375,0.04593467712402344,0.27830442786216736,0.07527698576450348
1781801314467885800,3.5158857421875,0.0029315948486328125,0.9367918968200684,0.09310808032751083
1781801314483894800,3.531894775390625,-0.0636739730834961,1.1975903511047363,0.02917207032442093
1781801314499897300,3.5478974609375,-0.048858642578125,1.3162351846694946,-0.21163716912269592
1781801314515896300,3.563896240234375,0.051896095275878906,1.404011845588684,-0.5274416208267212
1781801314531898400,3.5798984375,-0.12505245208740234,1.084088683128357,-0.7265061140060425
1781801314547899400,3.5958994140625,0.023637771606445312,0.6990935802459717,-0.39652323722839355
1781801314563903500,3.611903564453125,0.04066181182861328,0.510880172252655,-0.445712685585022
1781801314579904000,3.627904052734375,-0.038084983825683594,0.4031488597393036,-0.21880435943603516
1781801314595903700,3.64390380859375,-0.05942726135253906,0.0330498069524765,0.04106445983052254
1781801314611906800,3.65990673828125,-0.016183853149414062,0.15880228579044342,-0.05050298571586609
1781801314627905500,3.675905517578125,-0.18846416473388672,0.23603716492652893,-0.07973814010620117
1781801314643910400,3.691910400390625,0.005602836608886719,0.2786012887954712,-0.23671920597553253
1781801314659917600,3.70791748046875,-0.049338340759277344,0.5633854269981384,-0.553235650062561
1781801314675923700,3.723923828125,-0.13776206970214844,0.6290737390518188,-0.4305506944656372
1781801314691933200,3.73993310546875,-0.099273681640625,0.45726293325424194,-0.7164715528488159
1781801314707931100,3.75593115234375,0.006243705749511719,0.5374172925949097,-1.0269474983215332
1781801314723939800,3.77193994140625,0.0974435806274414,0.7287355661392212,-0.6772797107696533
1781801314739943200,3.787943115234375,-0.0483245849609375,0.7387484908103943,-0.24367719888687134
1781801314755940900,3.80394091796875,-0.02881622314453125,0.7202406525611877,0.11944649368524551
1781801314771942100,3.819942138671875,-0.07868385314941406,0.6429218053817749,-0.03724184259772301
1781801314787947800,3.83594775390625,0.015082359313964844,0.38197654485702515,-0.11834147572517395
1781801314803953700,3.85195361328125,-0.07794189453125,0.12728479504585266,0.19385847449302673
1781801314819960300,3.867960205078125,-0.10891056060791016,-0.33260759711265564,0.781930148601532
1781801314835970000,3.883969970703125,-0.029840469360351562,-0.10269659757614136,0.6638565063476562
1781801314851973000,3.89997314453125,-0.08725643157958984,-0.16183912754058838,0.400780588388443
1781801314867974400,3.915974365234375,-0.022533416748046875,-0.039707303047180176,0.11657141149044037
1781801314883977500,3.9319775390625,-0.06551074981689453,0.47696369886398315,-0.34812960028648376
1781801314899978500,3.947978515625,0.023202896118164062,0.3472345173358917,-0.24397051334381104
1781801314915974000,3.963973876953125,-0.02200794219970703,0.27808070182800293,-0.15886378288269043
1781801314931978200,3.979978271484375,0.007000923156738281,-0.011215507984161377,0.19129009544849396
1781801314947987700,3.99598779296875,-0.02382659912109375,0.3862623870372772,-0.03461514413356781
1781801314963994400,4.011994384765625,-0.062111854553222656,0.03973260521888733,0.028829842805862427
1781801314980004000,4.028004150390625,-0.07172203063964844,0.3606194853782654,-0.07179147005081177
1781801314996014600,4.0440146484375,0.17024993896484375,0.9434418678283691,-0.4544782340526581
1781801315012032000,4.060031982421875,-0.006557464599609375,0.8463536500930786,-0.6583276987075806
1781801315028042000,4.0760419921875,-0.044417381286621094,0.2612043023109436,-0.5853108763694763
1781801315044047600,4.092047607421875,-0.101409912109375,0.22712954878807068,-0.06298240274190903
1781801315060054800,4.1080546875,0.11452102661132812,-0.054575175046920776,0.5620000958442688
1781801315076065000,4.12406494140625,-0.06229591369628906,0.08100461959838867,0.7290666103363037
1781801315092074200,4.14007421875,-0.07093524932861328,0.11206883192062378,0.5782187581062317
1781801315108089600,4.156089599609375,-0.02762126922607422,-0.018412619829177856,0.573077917098999
1781801315124102100,4.17210205078125,-0.08490371704101562,-0.19079148769378662,-0.11510822176933289
1781801315140105700,4.188105712890625,-0.027390480041503906,-0.2505761981010437,-0.4460740089416504
1781801315156111000,4.204111083984375,-0.034605979919433594,-0.490125447511673,-0.3473550081253052
1781801315172117800,4.22011767578125,0.034829139709472656,0.08073130249977112,-0.23577997088432312
1781801315188123600,4.23612353515625,-0.0536346435546875,0.18872866034507751,0.08743180334568024
1781801315204132900,4.2521328125,-0.10380744934082031,-0.14794957637786865,0.6750611066818237
1781801315220139500,4.268139404296875,-0.1348247528076172,-0.3459812104701996,0.5477152466773987
1781801315236149200,4.284149169921875,0.01844501495361328,-0.5117303133010864,0.2590031027793884
1781801315252161800,4.300161865234375,0.14280319213867188,-1.0159521102905273,0.04679247736930847
1781801315268167400,4.31616748046875,-0.058513641357421875,-0.44358548521995544,-0.1016736850142479
1781801315284181000,4.332180908203125,-0.0803365707397461,-0.9357262849807739,-0.12510228157043457
1781801315300196000,4.348196044921875,0.050942420959472656,-0.6680247783660889,0.35311490297317505
1781801315316204300,4.364204345703125,-0.004479408264160156,-0.40815064311027527,0.419158935546875
1781801315332216800,4.380216796875,0.1389608383178711,-0.3342592716217041,0.47959405183792114
1781801315348231700,4.396231689453125,-0.026404380798339844,-0.6804872155189514,0.4369334578514099
1781801315364244500,4.412244384765625,-0.12479972839355469,-0.8745397925376892,0.18877765536308289
1781801315380257300,4.42825732421875,-0.060545921325683594,-0.9008730053901672,-0.42641034722328186
1781801315396274200,4.444274169921875,-0.005965232849121094,-0.7541249990463257,-0.48328447341918945
1781801315412284400,4.460284423828125,0.012745857238769531,-0.5978231430053711,-0.41497617959976196
1781801315428297200,4.476297119140625,-0.03313446044921875,-0.18315599858760834,-0.33434414863586426
1781801315444308500,4.49230859375,0.00421905517578125,-0.10729506611824036,0.31203651428222656
1781801315460316400,4.50831640625,-0.1356649398803711,-0.20487207174301147,0.6643191576004028
1781801315476318700,4.524318603515625,0.017215728759765625,-0.023250311613082886,0.7783752083778381
1781801315492324400,4.540324462890625,-0.0666046142578125,0.12985754013061523,0.19338715076446533
1781801315508333800,4.556333740234375,0.009966850280761719,-0.45779770612716675,-0.8822355270385742
1781801315524337400,4.57233740234375,-0.1721506118774414,-0.2635122537612915,-1.0374330282211304
1781801315540338200,4.588338134765625,0.198699951171875,-0.20642921328544617,-0.6502455472946167
1781801315556335400,4.60433544921875,-0.13195514678955078,0.007670804858207703,-0.07351382821798325
1781801315572337700,4.620337646484375,-0.06981849670410156,0.2569164037704468,0.7969144582748413
1781801315588339000,4.6363388671875,-0.12972736358642578,0.36211735010147095,1.1510385274887085
1781801315604342800,4.6523427734375,-0.07220268249511719,0.08689415454864502,0.7210214138031006
1781801315620352000,4.66835205078125,-0.05537891387939453,0.018103063106536865,-0.2714332640171051
1781801315636356400,4.6843564453125,-0.036255836486816406,-0.23951999843120575,-0.6934200525283813
1781801315652357000,4.700357177734375,-0.08892345428466797,-0.20768289268016815,-0.7020605206489563
1781801315668358100,4.716358154296875,-0.024237632751464844,0.1898326277732849,-0.376770555973053
1781801315684367000,4.7323671875,-0.33066558837890625,-0.006071329116821289,0.0004376918077468872
1781801315700377300,4.74837744140625,-0.043365478515625,-0.10208165645599365,0.28361058235168457
1781801315716382500,4.764382568359375,-0.045762062072753906,0.26073047518730164,0.44924095273017883
1781801315732388000,4.78038818359375,0.018926620483398438,0.41752010583877563,0.2268589735031128
1781801315748393700,4.796393798828125,0.031027793884277344,0.6059942841529846,-0.1628642976284027
1781801315764395000,4.81239501953125,-0.07664299011230469,0.0024885237216949463,-0.9555221796035767
1781801315780395000,4.82839501953125,-0.021683692932128906,-0.30903899669647217,-1.5100816488265991
1781801315796391400,4.844391357421875,0.07154083251953125,0.046406954526901245,-0.8764124512672424
1781801315812389600,4.8603896484375,-0.026746749877929688,-0.04265409708023071,-0.03831583261489868
1781801315828386000,4.876385986328125,-0.0986185073852539,-0.197981059551239,0.8671706318855286
1781801315844390700,4.892390625,-0.033954620361328125,0.4487413465976715,0.8578230142593384
1781801315860396300,4.908396240234375,-0.0769491195678711,0.5487022995948792,0.4493062496185303
1781801315876401700,4.924401611328125,-0.057700157165527344,0.12463098764419556,-0.40469932556152344
1781801315892403000,4.94040283203125,-0.004955291748046875,0.18584603071212769,-0.8049523830413818
1781801315908411000,4.956410888671875,-0.129425048828125,-0.038232460618019104,-0.754304826259613
1781801315924416500,4.97241650390625,-0.14375877380371094,-0.46962296962738037,-0.3220464587211609
1781801315940421000,4.988421142578125,0.18662738800048828,-0.3006996810436249,0.24920625984668732
1781801315956429300,5.00442919921875,-0.1773090362548828,-0.14703068137168884,0.5919690132141113
1781801315972437000,5.02043701171875,0.06450271606445312,0.1464267373085022,0.4767087697982788
1781801315988442000,5.036442138671875,-0.19883060455322266,0.1901729702949524,0.1527782380580902
1781801316004452900,5.052452880859375,0.06691646575927734,0.3777729868888855,-0.14896957576274872
1781801316020470300,5.06847021484375,0.12434959411621094,-0.0958593487739563,-0.3530135750770569
1781801316036477700,5.084477783203125,-0.00972747802734375,-0.21086056530475616,-0.24647256731987
1781801316052481000,5.10048095703125,-0.6538476943969727,0.010848760604858398,-0.13127119839191437
1781801316068492300,5.1164921875,0.22459793090820312,-0.6316400766372681,0.07866890728473663
1781801316092502300,5.140502197265625,-0.13005733489990234,-0.7631478309631348,-0.044144630432128906
1781801316108504000,5.156504150390625,-0.4439210891723633,-0.09704005718231201,-0.4290790557861328
1781801316124507100,5.172507080078125,-0.03704357147216797,0.3138497471809387,-0.7106210589408875
1781801316140509200,5.18850927734375,-0.037189483642578125,0.2238125205039978,-0.6711525321006775
1781801316156512800,5.2045126953125,0.024888038635253906,-0.46984201669692993,-0.1863069236278534
1781801316172520000,5.22052001953125,0.0008630752563476562,0.008012637495994568,0.20648318529129028
1781801316188518100,5.23651806640625,-0.16691970825195312,-0.270977646112442,0.6334072947502136
1781801316204522800,5.252522705078125,-0.10739326477050781,-0.863821268081665,-0.02583172172307968
1781801316220522000,5.26852197265625,-0.06258869171142578,-0.39782285690307617,-0.47500625252723694
1781801316236529000,5.28452880859375,-0.0894460678100586,0.0005532652139663696,-0.37675246596336365
1781801316252535000,5.30053515625,-0.02013111114501953,0.4562462568283081,-0.26733583211898804
1781801316268539000,5.316538818359375,0.08518028259277344,0.6846016645431519,0.23095227777957916
1781801316284543500,5.33254345703125,-0.20694446563720703,0.24297013878822327,0.5008286833763123
1781801316300548600,5.348548583984375,0.10437297821044922,0.08769205212593079,0.13626888394355774
1781801316316560000,5.364559814453125,-0.17088603973388672,0.3540370762348175,0.1309737116098404
1781801316332565200,5.380565185546875,-0.04867839813232422,0.5302069187164307,0.3626445531845093
1781801316348566500,5.39656640625,-0.18475627899169922,0.1653699427843094,0.749626100063324
1781801316364569600,5.412569580078125,0.1370401382446289,0.4186071753501892,1.2089592218399048
1781801316380567800,5.42856787109375,0.07754039764404297,-0.797897219657898,1.6437889337539673
1781801316396572400,5.444572509765625,-0.1900777816772461,0.07043538987636566,2.169243812561035
1781801316412573700,5.46057373046875,-0.07712364196777344,0.7003821730613708,1.539135456085205
1781801316428571600,5.476571533203125,0.28002357482910156,0.3242020606994629,0.7017785310745239
1781801316444565000,5.49256494140625,-0.12188529968261719,-0.07606520503759384,0.14605401456356049
1781801316460565500,5.5085654296875,-0.013827323913574219,0.4226722717285156,0.162117600440979
1781801316476566000,5.52456591796875,-0.06857776641845703,0.783149003982544,0.014935851097106934
1781801316492562700,5.540562744140625,-0.008360862731933594,-0.12279001623392105,-0.061404332518577576
1781801316508565000,5.55656494140625,-0.06543540954589844,-0.41094914078712463,-0.03595897555351257
1781801316524569000,5.572569091796875,-0.4960784912109375,-0.7151886820793152,0.8858607411384583
1781801316540573200,5.5885732421875,-0.0651092529296875,-1.0725572109222412,0.89613938331604
1781801316556578000,5.604578125,0.14079666137695312,-0.4820638597011566,0.3904143273830414
1781801316572578800,5.620578857421875,-0.13448333740234375,0.014280378818511963,-0.5065746903419495
1781801316588580900,5.636580810546875,-0.055403709411621094,-0.07387144863605499,-1.1524174213409424
1781801316604583200,5.652583251953125,0.08818531036376953,-0.019402265548706055,-0.8802075386047363
1781801316620589800,5.66858984375,-0.0053539276123046875,-0.6007153391838074,0.043471187353134155
1781801316636595000,5.684594970703125,0.00180816650390625,-0.4522548019886017,0.37873128056526184
1781801316652604200,5.700604248046875,0.001613616943359375,-0.552702784538269,-0.15763284265995026
1781801316668616000,5.716615966796875,-0.11842727661132812,-0.3540017604827881,-0.6276120543479919
1781801316684623600,5.73262353515625,-0.15470504760742188,-0.08710964769124985,-0.9363763928413391
1781801316700629200,5.748629150390625,-0.0807952880859375,0.14447392523288727,-1.2790614366531372
1781801316716635400,5.764635498046875,0.09365367889404297,-0.3135823607444763,-0.8713502883911133
1781801316732640000,5.780639892578125,0.11723041534423828,-0.24032258987426758,-0.41007286310195923
1781801316748640300,5.79664013671875,0.00675201416015625,-0.5432307124137878,-0.159559428691864
1781801316764642600,5.812642578125,-0.11326408386230469,-0.51268070936203,-0.19928130507469177
1781801316780640000,5.828639892578125,-0.039320945739746094,0.06282772123813629,-0.4463822841644287
1781801316796643300,5.844643310546875,0.005986213684082031,0.26669925451278687,-0.5914288759231567
1781801316812643300,5.860643310546875,0.0034332275390625,-0.18498088419437408,-0.5470603108406067
1781801316828644600,5.87664453125,-0.09741592407226562,-0.6554440259933472,-0.2549111545085907
1781801316844646700,5.892646728515625,-0.17668533325195312,-0.30742213129997253,0.025683626532554626
1781801316860647000,5.90864697265625,-0.09322261810302734,-0.3496364951133728,0.2902071475982666
1781801316876651800,5.92465185546875,-0.035984039306640625,-0.5263186097145081,0.15860429406166077
1781801316892657000,5.940656982421875,-0.021753311157226562,-0.44166648387908936,0.15928637981414795
1781801316908661000,5.956660888671875,-0.03160381317138672,-0.19206851720809937,0.08180662989616394
1781801316924659000,5.972658935546875,-0.0891561508178711,-0.2905271649360657,-0.14608462154865265
1781801316940657700,5.98865771484375,-0.05340862274169922,-0.63518887758255,0.020730823278427124
1781801316956652000,6.004652099609375,0.008861541748046875,-0.8731337189674377,0.1623104065656662
1781801316972648000,6.02064794921875,-0.057910919189453125,-0.6428737640380859,0.1462385207414627
1781801316988641000,6.03664111328125,-0.09098625183105469,-0.059657320380210876,-0.04927642643451691
1781801317004639500,6.052639404296875,-0.0019884109497070312,-0.12529931962490082,-0.02155819535255432
1781801317020638700,6.068638671875,-0.03998851776123047,-0.34340962767601013,-0.16248825192451477
1781801317036644400,6.084644287109375,-0.03982830047607422,-0.2933809757232666,-0.1336279809474945
1781801317052652300,6.10065234375,-0.11142539978027344,-0.1962728500366211,0.10627353191375732
1781801317068660700,6.11666064453125,0.027695655822753906,-0.010965108871459961,0.18959857523441315
1781801317084664300,6.132664306640625,0.08541584014892578,-0.45748019218444824,-0.0899437740445137
1781801317100673300,6.14867333984375,-0.053086280822753906,-0.1468425989151001,0.03666186332702637
1781801317116674800,6.1646748046875,0.062262535095214844,-0.2567647695541382,0.14971530437469482
1781801317132676000,6.180676025390625,-0.049869537353515625,0.1072295755147934,-0.1184128075838089
1781801317148686000,6.19668603515625,0.06289863586425781,-0.3304474651813507,-0.2945142686367035
1781801317164699100,6.21269921875,-0.03486442565917969,-0.5477392673492432,-0.40199941396713257
1781801317180706800,6.228706787109375,0.05448150634765625,-0.6273013949394226,-0.14253690838813782
1781801317196710700,6.244710693359375,-0.08605766296386719,-0.11159533262252808,-0.11689907312393188
1781801317212714800,6.26071484375,-0.11442279815673828,0.1552603393793106,-0.2078191637992859
1781801317228721000,6.276720947265625,0.0748739242553711,0.25696563720703125,-0.39598730206489563
1781801317244730400,6.29273046875,-0.035327911376953125,0.2339327484369278,-0.46522408723831177
1781801317260739800,6.30873974609375,-0.08583831787109375,0.26877230405807495,-0.22377270460128784
1781801317276739600,6.324739501953125,-0.06444358825683594,-0.11539357900619507,0.014491938054561615
1781801317292740000,6.340739990234375,0.03850746154785156,-0.0950588583946228,0.07188350707292557
1781801317308746000,6.35674609375,-0.0955820083618164,0.347993940114975,0.03552371263504028
1781801317324747500,6.37274755859375,0.004834175109863281,0.21099698543548584,-0.20760869979858398
1781801317340752000,6.388751953125,0.06457138061523438,-0.05921080708503723,-0.2937263250350952
1781801317356753400,6.40475341796875,-0.062315940856933594,0.1258176863193512,0.02233220636844635
1781801317372754400,6.42075439453125,0.0717172622680664,0.26379385590553284,0.04272611439228058
1781801317388753700,6.436753662109375,-0.10090160369873047,0.36069822311401367,-0.16393494606018066
1781801317404757200,6.45275732421875,-0.12518692016601562,0.13876783847808838,-0.2470301389694214
1781801317420759800,6.468759765625,-0.07021427154541016,-0.7127425670623779,-0.21046409010887146
1781801317436761300,6.48476123046875,-0.11069679260253906,-0.08373263478279114,0.016750238835811615
1781801317452761300,6.50076123046875,-0.06268787384033203,0.582522451877594,-0.06192496046423912
1781801317468762000,6.51676220703125,-0.0963735580444336,0.5463809967041016,-0.07848884910345078
1781801317484763400,6.532763427734375,0.027637481689453125,0.3655428886413574,-0.14493075013160706
1781801317500760800,6.5487607421875,-0.06633758544921875,0.29401254653930664,-0.03712724894285202
1781801317516759300,6.56475927734375,0.07211017608642578,0.13828860223293304,0.08943130075931549
1781801317532759300,6.58075927734375,-0.14600181579589844,0.08558499813079834,0.37903696298599243
1781801317548763000,6.596762939453125,-0.012051582336425781,0.08314278721809387,0.40117883682250977
1781801317564771800,6.612771728515625,0.023731231689453125,0.14133113622665405,0.41242721676826477
1781801317580779000,6.628779052734375,0.04511547088623047,0.3141343891620636,0.20216797292232513
1781801317596780000,6.644780029296875,-0.06757164001464844,0.21121856570243835,0.029105938971042633
1781801317612782000,6.660781982421875,0.07125473022460938,0.007186830043792725,0.04941076785326004
1781801317628781300,6.67678125,-0.15143680572509766,0.1162620484828949,0.04354128986597061
1781801317644778000,6.692778076171875,-0.1754283905029297,-0.003944993019104004,0.05060809105634689
1781801317660773400,6.7087734375,-0.07252025604248047,0.028190091252326965,-0.05418657884001732
1781801317676775200,6.724775146484375,-0.09891510009765625,-0.09432244300842285,-0.3539706766605377
1781801317692779800,6.74077978515625,-0.051064491271972656,-0.4209859073162079,-0.3498768210411072
1781801317708787700,6.75678759765625,0.0064449310302734375,-0.373420387506485,-0.0025623440742492676
1781801317724790500,6.77279052734375,0.04960918426513672,-0.16258639097213745,0.1338852047920227
1781801317740787000,6.788786865234375,-0.11565208435058594,0.1104365885257721,-0.021480102092027664
1781801317756786700,6.80478662109375,-0.027204513549804688,0.04761502146720886,-0.042881570756435394
1781801317772796000,6.8207958984375,-0.0752248764038086,-0.03212624788284302,0.0770992785692215
1781801317788797700,6.836797607421875,-0.08483409881591797,-0.2811245620250702,0.1445644497871399
1781801317804799500,6.852799560546875,-0.06316947937011719,-0.30974793434143066,0.15696878731250763
1781801317820802600,6.868802490234375,-0.010189056396484375,-0.42105263471603394,0.05559222400188446
1781801317836807200,6.88480712890625,0.11710834503173828,-0.2709029018878937,0.01908985897898674
1781801317852808400,6.900808349609375,-0.0379791259765625,-0.3908497989177704,0.26629143953323364
1781801317868807400,6.916807373046875,-0.04666900634765625,-0.5319243669509888,0.3247765302658081
1781801317884808000,6.932807861328125,-0.026061058044433594,-1.1140645742416382,-0.29844456911087036
1781801317900814300,6.948814453125,-0.004977226257324219,-0.5587483644485474,-0.34604260325431824
1781801317916818200,6.964818115234375,-0.0058441162109375,0.254147469997406,-0.07231896370649338
1781801317932819700,6.98081982421875,0.0017232894897460938,0.42296290397644043,-0.14057067036628723
1781801317948821000,6.996821044921875,0.0305023193359375,0.16328561305999756,-0.10318853706121445
1781801317964829700,7.01282958984375,-0.01735973358154297,0.15435317158699036,-0.13081958889961243
1781801317980836900,7.0288369140625,-0.03665447235107422,0.3507740795612335,-0.22711828351020813
1781801317996845800,7.044845703125,0.07300186157226562,0.4569378197193146,-0.22504156827926636
1781801318012853800,7.060853759765625,-0.013794898986816406,0.1457338035106659,0.028876543045043945
1781801318028865800,7.07686572265625,-0.12405586242675781,-0.15591362118721008,0.257917582988739
1781801318044872700,7.092872802734375,0.01956939697265625,-0.29758191108703613,0.5755650401115417
1781801318060878600,7.108878662109375,-0.05701255798339844,-0.3186158835887909,0.4754877984523773
1781801318076886500,7.124886474609375,-0.07370662689208984,0.25214216113090515,0.30836719274520874
1781801318092898800,7.14089892578125,0.09151935577392578,0.2066158503293991,-0.05288577824831009
1781801318108911900,7.156911865234375,-0.10721206665039062,0.23717133700847626,-0.14376592636108398
1781801318124922000,7.172922119140625,-0.05709648132324219,0.40530163049697876,-0.11442265659570694
1781801318140929800,7.1889296875,0.014352798461914062,0.24554124474525452,-0.17179954051971436
1781801318156934700,7.2049345703125,0.016294479370117188,0.2614154517650604,-0.25039178133010864
1781801318172943400,7.220943359375,-0.05126380920410156,0.28290194272994995,-0.26506102085113525
1781801318188951000,7.236950927734375,-0.030303001403808594,0.2695792317390442,-0.22212399542331696
1781801318204963600,7.252963623046875,-0.08346748352050781,0.1883564293384552,0.05564825236797333
1781801318220969500,7.268969482421875,-0.08401298522949219,0.3755062520503998,0.07508458197116852
1781801318236977200,7.28497705078125,-0.09903526306152344,0.3600919246673584,0.10541047155857086
1781801318252991200,7.3009912109375,0.051082611083984375,0.4562526047229767,0.04102197289466858
1781801318269003000,7.3170029296875,-0.05528450012207031,0.6589511632919312,-0.3333727717399597
1781801318285018000,7.33301806640625,-0.07797908782958984,0.6272048950195312,-0.43698298931121826
1781801318301030000,7.34902978515625,0.05521392822265625,-0.014990106225013733,-0.2841944992542267
1781801318317038300,7.365038330078125,0.08840370178222656,-0.3689403533935547,-0.1177385076880455
1781801318333046800,7.381046875,0.03569984436035156,-0.6910478472709656,0.1468411386013031
1781801318349063700,7.397063720703125,0.09829044342041016,-1.1111925840377808,0.5428197383880615
1781801318365078300,7.413078369140625,-0.08032417297363281,-0.9460035562515259,0.31079092621803284
1781801318381092600,7.429092529296875,-0.05012226104736328,-0.9630023837089539,-0.42964306473731995
1781801318397103600,7.445103515625,0.0070343017578125,-0.8978032469749451,-0.6794755458831787
1781801318413109500,7.461109619140625,0.023650169372558594,-0.3395862579345703,0.5351551175117493
1781801318429116700,7.47711669921875,0.0395050048828125,0.4163225591182709,0.12685619294643402
1781801318445127200,7.493127197265625,-0.07985305786132812,0.4428386390209198,0.05460362508893013
1781801318461139000,7.509138916015625,-0.0007266998291015625,0.41643017530441284,0.04778178036212921
1781801318477150000,7.52514990234375,0.09255695343017578,0.4191015958786011,0.11513448506593704
1781801318493153500,7.541153564453125,-0.065887451171875,0.4146377742290497,0.0729212686419487
1781801318509152300,7.55715234375,-0.00189208984375,0.40017956495285034,0.0675404742360115
1781801318525148700,7.573148681640625,-0.01946258544921875,0.3837883174419403,0.07145676761865616
1781801318541146600,7.589146728515625,-0.027505874633789062,0.36047595739364624,0.05627335608005524
1781801318557149000,7.60514892578125,0.007556915283203125,0.3385929465293884,0.07000978291034698
1781801318573147100,7.621147216796875,-0.022003173828125,0.3209574818611145,0.0520922914147377
1781801318589149400,7.6371494140625,-0.017973899841308594,0.2897191047668457,0.03814259171485901
1781801318605151000,7.65315087890625,-0.15558528900146484,0.2534358501434326,0.05289553478360176
1781801318621145900,7.669145751953125,-0.007958412170410156,0.23856279253959656,0.048942483961582184
1781801318637143000,7.68514306640625,0.05371570587158203,0.1865576207637787,0.03837033361196518
1781801318653139500,7.701139404296875,-0.061652183532714844,0.16961486637592316,0.02786114811897278
1781801318669141000,7.71714111328125,-0.021282196044921875,0.16584989428520203,0.015195176005363464
1781801318685134000,7.733134033203125,-0.011977195739746094,0.14963307976722717,0.017674334347248077
1781801318701134000,7.749134033203125,-0.028955459594726562,0.14249762892723083,0.03242996335029602
1781801318717133800,7.7651337890625,-0.038710594177246094,0.14161638915538788,0.030592478811740875
1781801318733130800,7.781130859375,-0.034069061279296875,0.1276751160621643,0.012094877660274506
1781801318749133000,7.797133056640625,-0.03179454803466797,0.1125553697347641,0.013067498803138733
1781801318765136400,7.813136474609375,-0.04626274108886719,0.11020436882972717,0.021429285407066345
1781801318781143800,7.829143798828125,-0.03916454315185547,0.10169059038162231,0.01078987866640091
1781801318797147100,7.845147216796875,-0.041626930236816406,0.09634034335613251,0.0073062703013420105
1781801318813155000,7.861155029296875,-0.036904335021972656,0.09835221618413925,0.016075938940048218
1781801318829166600,7.87716650390625,-0.024988174438476562,0.07696019858121872,0.01040128618478775
1781801318845173200,7.89317333984375,-0.029821395874023438,0.0849875956773758,0.011938624083995819
1781801318861175000,7.909175048828125,-0.04422569274902344,0.0789681226015091,0.013574749231338501
1781801318877176800,7.9251767578125,-0.022713661193847656,0.08018025755882263,0.019973598420619965
1781801318893182700,7.9411826171875,-0.020353317260742188,0.06984168291091919,0.0050578489899635315
1781801318909180700,7.9571806640625,-0.02517414093017578,0.07146306335926056,-0.0002428889274597168
1781801318925178400,7.973178466796875,-0.006046295166015625,0.05687908083200455,0.006558224558830261
1781801318941175600,7.989175537109375,-0.03480243682861328,0.06388688832521439,0.013352848589420319
1781801318957170000,8.005169921875,-0.03242969512939453,0.061528272926807404,0.008159816265106201
1781801318973171200,8.021171142578124,-0.020475387573242188,0.05234488844871521,0.017237722873687744
1781801318989173800,8.037173828125,-0.03724956512451172,0.0552697628736496,0.009578593075275421
1781801319005181000,8.053180908203124,-0.039656639099121094,0.04395155981183052,0.009036868810653687
1781801319021184800,8.069184814453125,-0.032485008239746094,0.04963904246687889,-0.010458394885063171
1781801319037188900,8.08518896484375,-0.018133163452148438,0.050536103546619415,0.0061643049120903015
1781801319053191000,8.10119091796875,-0.03251171112060547,0.05373767390847206,0.0035228803753852844
1781801319069189600,8.117189697265625,-0.042099952697753906,0.04037997126579285,0.005691707134246826
1781801319085184300,8.133184326171875,-0.018167495727539062,0.03906504064798355,0.014941796660423279
1781801319101177900,8.149177734375,-0.03254222869873047,0.05194665864109993,0.021745160222053528
1781801319117170400,8.16517041015625,-0.025366783142089844,0.04365810751914978,0.004580184817314148
1781801319133168400,8.18116845703125,-0.022978782653808594,0.04483988136053085,0.001726597547531128
1781801319149167900,8.19716796875,-0.027774810791015625,0.043662235140800476,0.008665822446346283
1781801319165171000,8.2131708984375,-0.03736686706542969,0.0422150194644928,-0.010260440409183502
1781801319181173200,8.22917333984375,0.010519027709960938,0.04388028010725975,0.017648041248321533
1781801319197181400,8.245181396484375,-0.04216957092285156,0.040080346167087555,0.013223864138126373
1781801319213184500,8.2611845703125,-0.020654678344726562,0.035888880491256714,0.02202451229095459
1781801319229184800,8.277184814453125,-0.025488853454589844,0.045350413769483566,0.00997970998287201
1781801319245188000,8.29318798828125,-0.054253578186035156,0.036094773560762405,0.002181507647037506
1781801319261191000,8.30919091796875,-0.044708251953125,0.03433655574917793,-0.00809738039970398
1781801319277192400,8.3251923828125,-0.05430030822753906,0.0355108417570591,-0.007408700883388519
1781801319293196300,8.3411962890625,-0.032745361328125,0.0352637805044651,-0.00114469975233078
1781801319309198000,8.357197998046875,-0.05428600311279297,0.03748560696840286,-0.004434265196323395
1781801319325196500,8.373196533203124,-0.03751945495605469,0.032538849860429764,-0.0004549846053123474
1781801319341200100,8.3892001953125,-0.047066688537597656,0.030947528779506683,-0.0028338879346847534
1781801319357200600,8.40520068359375,-0.020708084106445312,0.043506454676389694,0.01941443234682083
1781801319373199400,8.421199462890625,-0.03743934631347656,0.03458246961236,-0.0018362849950790405
1781801319389197600,8.437197509765625,-0.07574653625488281,0.02210787683725357,-0.014169320464134216
